
Sense HAT Test Program ...

Raspberry UTC Start2021-10-24 10:34:31.420513
UTC Current Time, roll, Pitch, Yaw, AccX, AccY, AccZ, GyroX, GyroY, GyroZ, MagX, MagY, MagZ
2021-10-24 10:34:31.705400 , -3.3000204, -4.8415260, -170.8890812, 0.2314453, -0.2055054, 0.9232788, -55.5792683, 20.6402439, -46.3414634, -86.0000000, -244.0000000, -55.0000000
2021-10-24 10:34:31.950794 , -5.1902166, -7.5655752, -156.5414302, 0.1882324, -0.2993164, 1.0067139, -2.7743902, 12.0731707, 51.3414634, -87.1250000, -249.5000000, -51.3750000
2021-10-24 10:34:32.206390 , -7.1179990, -9.0472963, -142.4170611, 0.1361084, -0.3030396, 1.0292969, -3.1097561, 6.9512195, 47.1646341, -87.7500000, -250.8750000, -54.7500000
2021-10-24 10:34:32.453840 , -8.9694117, -10.0598248, -126.4269292, 0.2369995, -0.2133179, 1.1062622, -11.4939024, 1.4024390, 102.3780488, -93.7500000, -247.3750000, -42.7500000
2021-10-24 10:34:32.709176 , -10.9312640, -8.3624701, -113.2533554, 0.0882568, -0.2526245, 0.9341431, -10.0609756, 13.5060976, 62.3780488, -107.1250000, -234.0000000, -33.8750000
2021-10-24 10:34:32.975163 , -11.4323115, -6.5382352, -101.3846305, 0.1864624, -0.2420044, 0.9643555, 8.9939024, 32.8048780, 67.8963415, -115.8750000, -235.1250000, -25.6250000
2021-10-24 10:34:33.231655 , -13.8923396, -6.3423846, -92.7652766, 0.1800537, -0.3008423, 1.0072632, -27.9878049, 3.6890244, 34.3292683, -108.3750000, -241.7500000, -29.6250000
2021-10-24 10:34:33.476777 , -11.0043318, -4.6300365, -85.1633984, 0.0449829, -0.0922241, 1.0313721, 25.1219512, 6.3719512, 39.2682927, -124.1250000, -237.8750000, -29.6250000
2021-10-24 10:34:33.723458 , -9.8033111, -3.7469816, -76.5436589, 0.2040405, -0.1642456, 0.9372559, 26.7682927, 42.5000000, 70.2134146, -157.2500000, -231.5000000, -35.8750000
2021-10-24 10:34:33.970025 , -5.6088908, -1.6151687, -63.7435930, 0.0023193, 0.0869751, 0.8711548, 36.4329268, 6.4024390, 184.6951220, -180.8750000, -232.1250000, -37.2500000
2021-10-24 10:34:34.216651 , -11.2816213, -6.4213984, -62.5441887, 0.1810303, 0.0223389, 1.0003662, -146.4024390, -58.1707317, -8.9634146, -182.0000000, -278.7500000, -55.0000000
2021-10-24 10:34:34.463069 , -17.3944507, -5.2707928, -57.1699344, -0.0388184, -0.4093628, 0.9343872, -65.9451220, -30.8536585, 82.9878049, -203.0000000, -298.8750000, -83.3750000
2021-10-24 10:34:34.709430 , -23.2975855, -0.7608560, -54.2988114, -0.2122192, -0.8140259, 0.8029785, -3.7195122, 10.9756098, 53.0182927, -223.3750000, -300.1250000, -96.6250000
2021-10-24 10:34:34.957037 , -27.8130316, 2.6769935, -52.5054871, -0.1917725, -0.7752075, 0.7783813, -1.8292683, 5.6097561, 48.1402439, -223.7500000, -300.3750000, -97.0000000
2021-10-24 10:34:35.203613 , -31.3757022, 5.6508005, -51.1988617, -0.1896362, -0.7835693, 0.7742310, 0.4878049, 6.7987805, 53.5060976, -222.7500000, -299.1250000, -102.3750000
2021-10-24 10:34:35.450328 , -34.1514281, 7.9755063, -50.3894509, -0.1935425, -0.7846680, 0.7974854, -1.3719512, 6.2804878, 52.3170732, -223.0000000, -301.5000000, -98.6250000
2021-10-24 10:34:35.695928 , -35.2593075, 8.0423677, -49.5338190, -0.1271362, -0.7456055, 0.7850952, 16.8597561, -15.3048780, 43.8719512, -224.3750000, -301.8750000, -100.1250000
2021-10-24 10:34:35.942624 , -38.9256970, 9.4927389, -49.9736317, -0.2068481, -0.8400269, 0.7813110, -20.4573171, 5.7317073, 43.1097561, -204.6250000, -298.5000000, -88.3750000
2021-10-24 10:34:36.189150 , -36.1682727, 9.4402476, -49.2581353, 0.0111694, -0.9725952, 1.2177124, 58.3841463, 14.1768293, 74.9390244, -170.6250000, -273.1250000, -59.0000000
2021-10-24 10:34:36.434355 , -41.8470794, -0.2693161, -59.6745223, 0.2896118, -0.6282349, 0.7317505, -66.5853659, 30.8536585, -108.5975610, -84.2500000, -288.1250000, -60.0000000
2021-10-24 10:34:36.681369 , -38.2111642, 0.3079464, -63.1673275, 0.3353271, -0.6859131, 1.2937012, 22.9878049, 84.5731707, 37.5000000, -76.2500000, -258.3750000, -61.0000000
2021-10-24 10:34:36.927428 , -34.6180890, -1.9466578, -63.3117252, 0.3438110, -0.7138062, 1.2534180, 42.0426829, 2.9268293, 40.5487805, -75.2500000, -234.1250000, -57.8750000
2021-10-24 10:34:37.173632 , -32.3400388, -2.5598092, -62.9372503, 0.1958618, -0.4160156, 0.9920654, 0.1219512, 7.0121951, 49.4817073, -79.0000000, -232.5000000, -57.5000000
2021-10-24 10:34:37.419991 , -30.3777150, -3.2860343, -62.8862857, 0.2058716, -0.4036255, 0.9956055, 1.1890244, 6.4024390, 49.6951220, -74.1250000, -233.7500000, -60.6250000
2021-10-24 10:34:37.666302 , -28.8847343, -3.7425643, -62.7847769, 0.1977539, -0.4038086, 0.9978027, -0.0914634, 7.3170732, 49.2987805, -74.5000000, -231.6250000, -57.0000000
2021-10-24 10:34:37.913015 , -27.7096434, -4.1053690, -62.7224414, 0.1943359, -0.4023438, 0.9976196, -0.1829268, 7.1646341, 49.4207317, -74.3750000, -235.6250000, -55.8750000
2021-10-24 10:34:38.159899 , -26.8036137, -4.4583503, -62.6427888, 0.2005615, -0.4031982, 0.9973755, -0.3658537, 7.2560976, 49.3597561, -74.7500000, -234.6250000, -55.8750000
2021-10-24 10:34:38.406240 , -26.0611871, -4.6929803, -62.3640325, 0.2001953, -0.4017944, 0.9963379, -0.2439024, 7.1341463, 49.4512195, -78.3750000, -230.5000000, -56.5000000
2021-10-24 10:34:38.652654 , -25.4809304, -4.9074584, -62.2783333, 0.1986694, -0.3998413, 0.9966431, -0.4573171, 7.1036585, 49.4512195, -76.2500000, -233.8750000, -57.0000000
2021-10-24 10:34:38.898950 , -25.0186662, -5.0461913, -62.0735851, 0.1983643, -0.3999634, 0.9962158, -0.4573171, 7.1036585, 49.4512195, -78.2500000, -230.0000000, -57.3750000
2021-10-24 10:34:39.145300 , -24.6605443, -5.2307275, -62.1069018, 0.1987915, -0.3991699, 0.9979858, -0.3353659, 7.1036585, 49.4207317, -74.3750000, -235.0000000, -54.6250000
2021-10-24 10:34:39.391253 , -24.3781370, -5.3345926, -62.1248517, 0.1986084, -0.3997803, 0.9971924, -0.3963415, 7.1341463, 49.4817073, -74.0000000, -229.5000000, -58.1250000
2021-10-24 10:34:39.637155 , -24.1413567, -5.3931304, -61.9784492, 0.1978149, -0.3983154, 0.9960327, -0.4268293, 7.1341463, 49.4512195, -78.0000000, -231.7500000, -57.7500000
2021-10-24 10:34:39.883953 , -23.9628120, -5.5001925, -62.0536720, 0.1982422, -0.3973999, 0.9972534, -0.4268293, 7.1951220, 49.4512195, -73.0000000, -232.1250000, -54.6250000
2021-10-24 10:34:40.130185 , -23.8156704, -5.5402613, -62.0265710, 0.1983032, -0.3977051, 0.9956055, -0.4573171, 7.1646341, 49.4207317, -76.6250000, -233.7500000, -59.5000000
2021-10-24 10:34:40.376459 , -23.6917154, -5.5943270, -61.9943826, 0.1989746, -0.3969116, 0.9963989, -0.3658537, 7.1951220, 49.4817073, -75.6250000, -232.2500000, -56.6250000
2021-10-24 10:34:40.622982 , -23.5999906, -5.6285238, -61.9781293, 0.1986694, -0.3974609, 0.9973145, -0.4878049, 7.1646341, 49.4207317, -76.0000000, -233.1250000, -57.8750000
2021-10-24 10:34:40.869200 , -23.5096380, -5.6487572, -61.9814108, 0.1992188, -0.3966675, 0.9971924, -0.3658537, 7.2256098, 49.4512195, -76.3750000, -233.8750000, -59.8750000
2021-10-24 10:34:41.115661 , -23.4465282, -5.6649350, -61.9291534, 0.1984253, -0.3965454, 0.9968262, -0.4878049, 7.1341463, 49.4207317, -76.0000000, -230.3750000, -57.5000000
2021-10-24 10:34:41.362208 , -23.4023070, -5.6895802, -61.9238619, 0.1981812, -0.3963013, 0.9957275, -0.4573171, 7.1341463, 49.4207317, -74.6250000, -229.2500000, -56.5000000
2021-10-24 10:34:41.608561 , -23.3487217, -5.6877450, -61.7954987, 0.1983643, -0.3961792, 0.9974365, -0.3353659, 7.2560976, 49.4512195, -77.1250000, -229.0000000, -55.8750000
2021-10-24 10:34:41.855128 , -23.2909406, -5.6839717, -61.7872619, 0.1970215, -0.3953857, 0.9994507, -0.3048780, 7.1951220, 49.3292683, -75.7500000, -230.0000000, -56.8750000
2021-10-24 10:34:42.101480 , -23.2766251, -5.5881648, -61.6771025, 0.1904297, -0.3977051, 0.9880981, 0.3658537, 7.1341463, 50.0000000, -77.0000000, -227.2500000, -58.8750000
2021-10-24 10:34:42.347843 , -23.4868042, -6.3047001, -61.4522791, 0.2087402, -0.3699341, 0.9925537, -9.9390244, -5.3963415, 51.1280488, -75.3750000, -232.2500000, -57.6250000
2021-10-24 10:34:42.593679 , -23.3205750, -6.3678670, -61.7760313, 0.2319946, -0.4260254, 1.0133057, 6.4939024, 13.1707317, 42.8658537, -77.3750000, -231.2500000, -53.6250000
2021-10-24 10:34:42.839752 , -19.3453931, -5.4841796, -61.5153870, 0.1909180, -0.2557373, 1.0874023, 44.1768293, 23.4756098, 44.7256098, -85.0000000, -225.0000000, -21.1250000
2021-10-24 10:34:43.086158 , -15.3501994, -3.7097761, -60.7516100, 0.0961304, -0.1420898, 1.0137329, 36.5243902, 27.3170732, 40.5792683, -101.5000000, -225.2500000, -8.2500000
2021-10-24 10:34:43.332738 , -13.8221546, -2.3431477, -58.7584052, 0.1721191, -0.1000366, 1.0116577, -15.7621951, -8.1707317, 59.1158537, -111.1250000, -240.2500000, -8199.6250000
2021-10-24 10:34:43.578948 , -12.3013439, -2.1028853, -56.1016911, 0.1439819, -0.1174927, 1.0108643, 4.4207317, 15.0609756, 79.1768293, -125.0000000, -248.6250000, -8.1250000
2021-10-24 10:34:43.855248 , -11.5465037, -2.5465959, -54.5571361, 0.1201782, -0.1529541, 0.9628906, 5.3048780, 3.2012195, 61.0060976, -132.5000000, -255.5000000, -11.1250000
2021-10-24 10:34:44.110086 , -11.2214710, -3.2392416, -53.6294727, 0.1616211, -0.1275635, 1.0186157, -8.4146341, 6.3109756, 56.8902439, -135.3750000, -262.5000000, -15.8750000
2021-10-24 10:34:44.365371 , -10.5698912, -3.0639934, -53.3889333, 0.1344604, -0.1318970, 1.0301514, -0.2439024, 17.1951220, 41.3719512, -142.3750000, -258.8750000, -13.8750000
2021-10-24 10:34:44.610662 , -10.5029485, -2.4779865, -52.6130294, 0.0767822, -0.1400146, 1.0444336, -7.6829268, 10.0609756, 52.6829268, -144.3750000, -263.0000000, -15.2500000
2021-10-24 10:34:44.895320 , -10.7426334, -1.5736064, -52.1753010, 0.0743408, -0.1644287, 1.0015259, -6.7987805, 20.2134146, 49.8780488, -145.3750000, -262.1250000, -17.3750000
2021-10-24 10:34:45.151445 , -10.7190092, -1.6653602, -50.8053608, 0.0469360, -0.1646729, 1.0088501, -2.1646341, -6.7987805, 68.0487805, -144.1250000, -263.2500000, -16.8750000
2021-10-24 10:34:45.425143 , -10.8700297, -2.1425913, -49.8437806, 0.0927734, -0.1782837, 1.0023193, -1.7378049, -3.0182927, 66.4329268, -146.5000000, -267.8750000, -19.1250000
2021-10-24 10:34:45.670832 , -10.0025744, -2.5786675, -49.1181721, 0.0861206, -0.1331177, 1.0001831, 8.4451220, -5.3048780, 65.5182927, -143.5000000, -262.6250000, -16.8750000
2021-10-24 10:34:45.946168 , -9.7052249, -2.5872118, -49.7610864, 0.0974121, -0.1453247, 0.9791260, 2.9268293, 8.4451220, 45.3658537, -141.0000000, -264.1250000, -22.7500000
2021-10-24 10:34:46.203264 , -10.0770228, -1.4840165, -51.1436021, 0.0824585, -0.1516724, 1.0190430, -10.4268293, 29.6646341, 28.7500000, -143.6250000, -263.7500000, -23.1250000
2021-10-24 10:34:46.445547 , -10.3118462, -2.1850993, -50.7366490, 0.0504150, -0.1807251, 1.0465698, -2.6829268, -16.3109756, 56.7987805, -136.8750000, -263.2500000, -22.6250000
2021-10-24 10:34:46.687479 , -10.3082367, -1.1903383, -51.4194989, 0.0402222, -0.1725464, 1.0016479, 0.9146341, 17.4695122, 37.0121951, -139.7500000, -257.8750000, -20.5000000
2021-10-24 10:34:46.933059 , -11.0403911, -2.4201132, -51.3018176, 0.1141968, -0.2018433, 1.0309448, -7.8048780, -8.5060976, 54.4207317, -130.1250000, -261.3750000, -16.1250000
2021-10-24 10:34:47.178880 , -11.6254164, -2.9130611, -50.8316669, 0.0855713, -0.2059326, 1.0073242, -3.4146341, -5.8536585, 62.2256098, -122.3750000, -249.7500000, -6.3750000
2021-10-24 10:34:47.424940 , -7.3978685, -2.4468742, -48.4030855, 0.0071411, -0.2081299, 1.0614014, 1.2195122, 7.3170732, 50.5182927, -107.6250000, -227.2500000, 24576.1250000
2021-10-24 10:34:47.671107 , -10.3136642, -2.4609979, -50.5693104, 0.1019897, -0.2333374, 1.0985718, -34.3902439, 10.6097561, 49.2378049, -82.6250000, -222.1250000, -12.6250000
2021-10-24 10:34:47.917242 , -11.4031708, -1.0207659, -51.9865845, 0.0820312, -0.2847290, 1.0671997, 2.5609756, 28.7195122, 67.3170732, -76.0000000, -221.8750000, -30.6250000
2021-10-24 10:34:48.163935 , -13.7300899, -1.4272626, -53.5434385, 0.1486816, -0.3361816, 1.0366821, -17.8963415, 10.1524390, 59.3292683, -73.6250000, -222.2500000, -45.3750000
2021-10-24 10:34:48.410332 , -15.8802268, -1.1668487, -55.2761494, 0.1091919, -0.3762207, 1.0098877, -13.1097561, 12.3475610, 53.7500000, -72.3750000, -227.1250000, -56.0000000
2021-10-24 10:34:48.656872 , -16.1158142, -1.6505500, -56.8990006, 0.1510620, -0.3612671, 1.0517578, 9.3902439, 5.2743902, 50.2743902, -69.3750000, -224.3750000, -64.8750000
2021-10-24 10:34:48.903170 , -16.9479718, -2.2086030, -57.8331820, 0.1547852, -0.3543701, 1.0088501, -0.6707317, 6.3414634, 49.3292683, -76.3750000, -223.2500000, -55.2500000
2021-10-24 10:34:49.149181 , -17.4341964, -2.6200720, -58.7607722, 0.1406250, -0.3775024, 1.0429688, 6.5243902, 5.8536585, 42.7743902, -75.5000000, -218.8750000, -45.5000000
2021-10-24 10:34:49.395585 , -17.3169950, -2.9072178, -59.8960676, 0.1250000, -0.3169556, 0.9905396, 8.3536585, 9.9695122, 34.8780488, -72.8750000, -217.3750000, -31.2500000
2021-10-24 10:34:49.641978 , -16.6976467, -2.5472056, -60.0274924, 0.1138916, -0.2812500, 1.0183105, 9.9390244, 14.9085366, 50.2743902, -74.1250000, -217.3750000, -23.6250000
2021-10-24 10:34:49.888502 , -15.4797144, -2.6239292, -59.9189841, 0.1187134, -0.2533569, 1.0349731, 17.6829268, 7.9878049, 53.2926829, -73.5000000, -217.0000000, -20.3750000
2021-10-24 10:34:50.134122 , -15.6949552, -3.2366118, -60.1599932, 0.1386719, -0.2529297, 1.0253296, -6.2500000, 5.5792683, 43.6280488, -74.0000000, -218.2500000, -12.2500000
2021-10-24 10:34:50.380411 , -14.2157161, -1.3522797, -58.5380105, 0.1365967, -0.2166138, 0.9841309, 9.7865854, -1.8902439, 50.9146341, -78.6250000, -216.5000000, -8193.8750000
2021-10-24 10:34:50.627048 , -8.3883504, -3.0694710, -55.6553453, 0.1279297, -0.1889038, 1.0132446, -1.5548780, 2.1951220, 61.7378049, -85.1250000, -227.7500000, 32766.5000000
2021-10-24 10:34:50.873711 , -6.3592065, -3.5261048, -53.3754787, 0.1388550, -0.2158813, 1.0399170, -5.7012195, 10.5487805, 48.2926829, -90.7500000, -232.6250000, 24579.1250000
2021-10-24 10:34:51.119821 , -5.5664645, -4.2642407, -51.0400188, 0.1638184, -0.2158203, 1.0119629, 1.3414634, 2.3475610, 47.6524390, -96.7500000, -233.8750000, 8196.1250000
2021-10-24 10:34:51.366134 , -5.0827187, -4.8176246, -48.5744741, 0.1685791, -0.2226562, 1.0243530, -0.2439024, 3.8109756, 49.8780488, -99.1250000, -239.1250000, 16387.5000000
2021-10-24 10:34:51.612870 , -4.6569844, -4.8892827, -45.8634087, 0.1616211, -0.2147827, 1.0115967, 7.2865854, 6.6463415, 54.7256098, -104.8750000, -241.6250000, 8195.2500000
2021-10-24 10:34:51.858794 , -4.0766550, -4.7586384, -43.6263153, 0.1586914, -0.1906128, 1.0126343, 3.2012195, 14.1158537, 45.6707317, -115.5000000, -240.7500000, 24576.3750000
2021-10-24 10:34:52.105120 , -4.1405530, -5.0394977, -40.4640249, 0.1499023, -0.1835938, 1.0569458, -3.2926829, 0.6402439, 64.0853659, -120.8750000, -247.6250000, 16384.5000000
2021-10-24 10:34:52.351544 , -5.9136699, -2.8692321, -38.4380049, 0.1456299, -0.2210693, 1.0029297, 0.0914634, 12.0121951, 44.9390244, -124.2500000, -247.6250000, -16385.5000000
2021-10-24 10:34:52.598046 , -6.4234378, -1.6645106, -35.5303559, 0.1539307, -0.1953125, 1.0153198, 1.7682927, 6.9817073, 66.0975610, -126.8750000, -255.6250000, -8196.6250000
2021-10-24 10:34:52.844738 , -8.2640466, -2.8765774, -38.7756583, 0.1793823, -0.2057495, 1.0202026, -9.3292683, 11.6768293, 54.1768293, -127.3750000, -256.1250000, -6.5000000
2021-10-24 10:34:53.090920 , -8.3211215, -0.3399712, -36.9223090, 0.1291504, -0.2252197, 1.0120850, 3.2621951, 21.0975610, 49.6951220, -133.8750000, -260.2500000, -8200.6250000
2021-10-24 10:34:53.336908 , -9.6746149, -1.4471690, -40.0146605, 0.1193848, -0.2197266, 1.0050659, -3.1402439, 6.7073171, 47.3170732, -137.1250000, -262.6250000, -9.6250000
2021-10-24 10:34:53.583519 , -10.5775085, -2.1214752, -41.9574611, 0.1232910, -0.2103271, 1.0261230, -2.8353659, 8.4451220, 52.6219512, -143.8750000, -261.5000000, -9.7500000
2021-10-24 10:34:53.829974 , -11.4586455, -2.8347168, -43.5295539, 0.1246338, -0.2217407, 1.0107422, -2.6524390, 3.8109756, 54.7865854, -141.2500000, -266.3750000, -12.6250000
2021-10-24 10:34:54.076276 , -12.1215687, -3.4467562, -45.2802847, 0.1266479, -0.2171021, 1.0056763, -3.5670732, 3.9634146, 43.7195122, -140.3750000, -263.0000000, -15.6250000
2021-10-24 10:34:54.322915 , -11.2285369, -3.2118810, -46.3612308, 0.1251221, -0.1829224, 1.0244141, 16.5548780, 15.2134146, 51.8292683, -144.0000000, -266.3750000, -17.8750000
2021-10-24 10:34:54.569476 , -11.7928304, -3.3849762, -47.3475470, 0.1138916, -0.1983032, 1.0179443, -6.6768293, 5.9146341, 46.5243902, -143.6250000, -264.5000000, -17.3750000
2021-10-24 10:34:54.815859 , -12.4837636, -3.0490642, -48.1787038, 0.1120605, -0.2153320, 1.0214844, -7.7743902, 14.7865854, 47.0731707, -147.2500000, -271.3750000, -17.7500000
2021-10-24 10:34:55.062339 , -13.0612591, -2.4252412, -48.7173553, 0.0855103, -0.2388916, 1.0328369, -4.2073171, 13.7195122, 49.2682927, -150.0000000, -273.6250000, -24.7500000
2021-10-24 10:34:55.308999 , -14.0334775, -2.0321852, -49.2907237, 0.0514526, -0.2645264, 1.0194092, -8.1097561, 4.4207317, 46.2804878, -149.3750000, -278.8750000, -24.2500000
2021-10-24 10:34:55.554625 , -15.0236658, -1.4521606, -49.5410640, 0.0800781, -0.2918701, 1.0079956, -6.0060976, 15.3048780, 51.7682927, -153.8750000, -282.1250000, -28.0000000
2021-10-24 10:34:55.801427 , -15.6992105, -1.6510121, -49.8670439, 0.0891724, -0.2917480, 1.0176392, -4.3292683, 4.3902439, 49.4817073, -149.0000000, -281.7500000, -27.3750000
2021-10-24 10:34:56.047646 , -16.0203427, -1.7923386, -50.0305122, 0.0782471, -0.2955322, 0.9904785, 3.0182927, 2.3780488, 48.1707317, -152.7500000, -283.5000000, -25.0000000
2021-10-24 10:34:56.294616 , -16.1408216, -1.8244572, -50.5612743, 0.0850220, -0.2910156, 0.9967651, 4.2378049, 7.1951220, 42.9268293, -147.6250000, -279.1250000, -25.6250000
2021-10-24 10:34:56.552501 , -15.7072436, -1.5700891, -50.8299450, 0.0830688, -0.2550049, 0.9924927, 6.5853659, 11.3414634, 46.8292683, -148.1250000, -277.6250000, -26.2500000
2021-10-24 10:34:56.807540 , -15.2729472, -1.6027422, -50.8643605, 0.0658569, -0.2320557, 1.0278931, 0.9146341, 2.1036585, 46.0060976, -144.5000000, -267.3750000, -19.2500000
2021-10-24 10:34:57.053261 , -14.7686692, -1.6337840, -51.0831954, 0.0998535, -0.2199097, 1.0308838, 1.3109756, 10.6097561, 47.5000000, -141.2500000, -268.6250000, -20.2500000
2021-10-24 10:34:57.309518 , -14.4609057, -1.3116413, -51.6733443, 0.0937500, -0.2117920, 1.0321045, -2.8963415, 18.1402439, 41.7682927, -139.2500000, -267.5000000, -20.5000000
2021-10-24 10:34:57.566229 , -14.4328770, -1.9442680, -52.3272736, 0.1350708, -0.2274780, 1.0114136, -3.0182927, 11.0975610, 37.3475610, -136.0000000, -264.3750000, -21.0000000
2021-10-24 10:34:57.811526 , -14.0341094, -3.1349933, -52.2279759, 0.1412964, -0.2191162, 1.0082397, 3.8109756, -4.5121951, 46.9207317, -132.6250000, -260.5000000, -16.8750000
2021-10-24 10:34:58.105115 , -13.1415172, -3.9272488, -51.6935589, 0.1276855, -0.1948853, 1.0176392, 10.7926829, -6.3719512, 52.6219512, -129.0000000, -247.6250000, -9.5000000
2021-10-24 10:34:58.353370 , -11.8308379, -1.8586180, -49.5869812, 0.1177979, -0.1706543, 1.0302124, 2.5000000, -12.2865854, 57.2560976, -119.5000000, -244.0000000, -16386.6250000
2021-10-24 10:34:58.608471 , -10.7080387, -0.0782038, -48.4754440, 0.1346436, -0.1552734, 1.0250854, -3.0487805, 12.5304878, 36.5243902, -112.2500000, -234.7500000, -16385.1250000
2021-10-24 10:34:58.853781 , -8.7697481, 0.6958213, -46.4189051, 0.1290283, -0.1223145, 1.0436401, 10.2134146, 6.0060976, 51.5243902, -104.1250000, -226.5000000, -24577.7500000
2021-10-24 10:34:59.096639 , -5.2688634, -2.3308744, -44.0462458, 0.1557007, -0.1093140, 0.9862061, 0.3353659, 0.8841463, 49.4207317, -94.2500000, -223.0000000, 24576.0000000
2021-10-24 10:34:59.341955 , -5.8190900, -1.9423796, -40.9623668, 0.1672363, -0.1503906, 1.0385742, -2.5609756, 2.6524390, 67.6524390, -79.3750000, -218.1250000, -24577.1250000
2021-10-24 10:34:59.588262 , -6.9489308, -3.3163020, -45.6345191, 0.1447754, -0.1658936, 1.0126953, -5.7317073, -3.4146341, 42.1951220, -64.2500000, -215.3750000, -16.5000000
2021-10-24 10:34:59.834696 , -8.8159506, -3.1435499, -48.8529804, 0.1027832, -0.2244263, 1.0251465, -11.9207317, 6.5548780, 49.0548780, -69.6250000, -213.5000000, -26.1250000
2021-10-24 10:35:00.081247 , -10.7333174, -2.8675199, -51.4998767, 0.0988159, -0.2897949, 1.0363770, -9.2378049, 0.3658537, 54.5426829, -62.1250000, -210.1250000, -45.1250000
2021-10-24 10:35:00.327540 , -12.4457261, -2.1292429, -54.3993698, 0.0762939, -0.3196411, 1.0334473, -6.5853659, 7.0731707, 42.4695122, -61.6250000, -214.6250000, -53.3750000
2021-10-24 10:35:00.574804 , -13.7841966, -2.0168103, -56.4626472, 0.1240234, -0.3560181, 1.0289307, -0.3048780, 2.4390244, 48.8109756, -59.1250000, -209.3750000, -70.3750000
2021-10-24 10:35:00.821348 , -14.9783529, -2.1281001, -57.9871111, 0.1386108, -0.3465576, 1.0081787, -1.7378049, 6.1280488, 49.5731707, -62.8750000, -212.6250000, -64.3750000
2021-10-24 10:35:01.067726 , -15.7751242, -1.7371390, -59.0655385, 0.1236572, -0.3501587, 1.0495605, 2.2560976, 17.9878049, 50.5182927, -66.5000000, -215.7500000, -43.3750000
2021-10-24 10:35:01.313589 , -16.1415319, -2.2065352, -59.3322859, 0.1373291, -0.3358765, 1.0043945, 7.6219512, 5.0914634, 52.5000000, -77.7500000, -229.5000000, -44.8750000
2021-10-24 10:35:01.560117 , -16.2714737, -3.0835803, -59.4454486, 0.1527100, -0.3195801, 1.0015259, 7.9573171, 0.9451220, 44.8780488, -89.5000000, -242.3750000, -38.2500000
2021-10-24 10:35:01.806488 , -17.4562053, -3.0018803, -59.5977392, 0.1274414, -0.3151855, 0.9790039, -13.5975610, 11.9817073, 42.9573171, -96.7500000, -252.3750000, -39.1250000
2021-10-24 10:35:02.053122 , -16.6815228, -2.9165464, -59.2684154, 0.0852051, -0.3159790, 1.0371094, 17.8658537, 0.7621951, 39.5426829, -105.1250000, -249.7500000, -30.8750000
2021-10-24 10:35:02.299457 , -17.3944207, -2.8876609, -58.4922083, 0.1030273, -0.3098755, 1.0203247, -9.4512195, 2.2256098, 49.5731707, -109.5000000, -256.8750000, -28.2500000
2021-10-24 10:35:02.545797 , -17.8774219, -2.6506361, -58.1236391, 0.1421509, -0.3179932, 1.0031128, -4.5426829, 16.8292683, 51.0060976, -110.8750000, -265.0000000, -33.0000000
2021-10-24 10:35:02.792167 , -18.2172530, -2.3201886, -57.9607221, 0.1066284, -0.3256836, 1.0133057, -3.0182927, 12.1341463, 45.3048780, -114.8750000, -268.8750000, -35.7500000
2021-10-24 10:35:03.038131 , -18.6122038, -2.0235615, -56.7880424, 0.1088867, -0.3335571, 1.0166016, -3.7804878, 7.0121951, 63.1707317, -121.8750000, -274.8750000, -36.7500000
2021-10-24 10:35:03.284882 , -18.8290904, -1.3557797, -55.2121639, 0.0791626, -0.3456421, 1.0078125, 1.8292683, 5.2439024, 74.4817073, -128.1250000, -280.5000000, -39.8750000
2021-10-24 10:35:03.530891 , -19.0421776, -1.2211504, -54.9069608, 0.0884399, -0.3461304, 1.0182495, -0.2134146, 7.1036585, 52.4695122, -130.8750000, -280.3750000, -39.6250000
2021-10-24 10:35:03.776539 , -19.2200973, -0.7201645, -54.5321748, 0.1005249, -0.3349609, 1.0111694, -2.5000000, 16.8902439, 58.3231707, -132.7500000, -281.7500000, -41.7500000
2021-10-24 10:35:04.023595 , -18.9570728, -0.3807039, -54.3788994, 0.0579834, -0.3196411, 1.0138550, 1.9817073, 7.7743902, 51.0060976, -135.6250000, -284.8750000, -40.8750000
2021-10-24 10:35:04.269917 , -18.8792495, 0.4250558, -54.3871082, 0.0267334, -0.3257446, 1.0079346, 0.8231707, 12.8048780, 47.8048780, -137.3750000, -282.6250000, -39.3750000
2021-10-24 10:35:04.516465 , -18.8283073, 0.5144353, -54.1436474, 0.0343018, -0.3307495, 1.0469360, -1.6768293, 2.7743902, 47.1951220, -141.0000000, -282.3750000, -37.5000000
2021-10-24 10:35:04.763061 , -18.5749005, 1.0966082, -53.9108668, -0.0053711, -0.3154297, 1.0150146, 1.7987805, 3.2012195, 52.1646341, -134.3750000, -279.0000000, -38.0000000
2021-10-24 10:35:05.009231 , -18.3244056, 0.8871755, -53.5901936, 0.0221558, -0.2926025, 1.0187378, -2.8353659, -2.9268293, 50.0914634, -138.0000000, -280.1250000, -32.0000000
2021-10-24 10:35:05.255759 , -18.3651662, 0.3353887, -53.2846134, 0.0787354, -0.3051147, 1.0339966, -5.4268293, 1.0670732, 57.9878049, -130.1250000, -277.7500000, -33.7500000
2021-10-24 10:35:05.502243 , -18.4963081, 0.3144839, -53.8991718, 0.0941772, -0.3067627, 1.0127563, -5.3658537, 16.1585366, 51.4329268, -123.0000000, -278.6250000, -44.0000000
2021-10-24 10:35:05.748440 , -18.4317170, -0.1655893, -54.2579262, 0.1132812, -0.3219604, 1.0531616, -0.7621951, 10.1219512, 53.1097561, -119.8750000, -277.5000000, -36.7500000
2021-10-24 10:35:05.995329 , -18.3181362, 0.1926953, -55.8287807, 0.0520630, -0.3103027, 1.0111694, 1.2804878, 19.4207317, 30.9451220, -111.5000000, -267.2500000, -34.1250000
2021-10-24 10:35:06.241840 , -17.9426093, -0.2672930, -56.2576454, 0.0972290, -0.2937622, 1.0255737, 1.9817073, 9.2073171, 48.0487805, -102.2500000, -254.1250000, -28.0000000
2021-10-24 10:35:06.489210 , -17.4844295, -0.5638475, -56.9228483, 0.0834351, -0.2662354, 0.9960327, 1.8902439, 11.4329268, 43.4146341, -91.6250000, -238.8750000, -15.2500000
2021-10-24 10:35:06.735737 , -17.5909785, -1.5393096, -56.6968932, 0.0838623, -0.3001099, 1.0363770, -0.6402439, -2.8658537, 44.0548780, -86.5000000, -220.1250000, 22.7500000
2021-10-24 10:35:06.982165 , -17.2242133, -1.0089372, -55.2927578, 0.0541992, -0.2922363, 1.0286865, 4.9390244, 10.1524390, 46.8597561, -97.3750000, -210.2500000, 73.1250000
2021-10-24 10:35:07.228649 , -16.5972394, 1.0997391, -52.8803302, -0.0339355, -0.2869873, 1.0166626, -4.4512195, 10.2134146, 27.5304878, -167.8750000, -219.5000000, 93.7500000
2021-10-24 10:35:07.475114 , -16.9384416, 2.5971893, -49.3501906, -0.0140991, -0.3341675, 0.9927368, -8.2926829, 10.0000000, 47.2560976, -227.0000000, -246.8750000, 50.8750000
2021-10-24 10:35:07.721291 , -16.4973563, 6.0302874, -47.0981406, -0.0542603, -0.3244629, 0.9989624, -7.4695122, 16.2195122, 67.7134146, -253.5000000, -261.0000000, -8208.5000000
2021-10-24 10:35:07.967250 , -16.1394694, 6.2511080, -44.1006860, -0.0803833, -0.3010254, 0.9556885, 5.2134146, -8.2012195, 69.7865854, -247.8750000, -272.8750000, -46.6250000
2021-10-24 10:35:08.214156 , -16.1693927, 6.9319020, -44.1036449, -0.1115723, -0.2977905, 1.0061035, -1.4634146, 4.1768293, 51.2804878, -214.3750000, -292.2500000, -74.1250000
2021-10-24 10:35:08.460341 , -16.0322197, 6.4189540, -44.2653862, -0.0197754, -0.2929688, 0.9948120, 1.5243902, 3.3841463, 70.8231707, -188.5000000, -314.6250000, -64.2500000
2021-10-24 10:35:08.706347 , -15.8885473, 6.1267763, -45.6373285, -0.0486450, -0.2785034, 1.0095215, 2.6219512, 7.1951220, 52.6219512, -183.5000000, -333.3750000, -49.8750000
2021-10-24 10:35:08.953129 , -15.8795488, 5.3085053, -46.9316688, -0.0134888, -0.2653198, 1.0057373, -4.0548780, 1.8597561, 51.8902439, -178.2500000, -339.1250000, -60.5000000
2021-10-24 10:35:09.209340 , -16.0289902, 5.0289963, -49.1050531, 0.0021973, -0.3014526, 0.9813232, 2.8048780, 13.9329268, 39.4207317, -164.8750000, -335.1250000, -78.0000000
2021-10-24 10:35:09.466315 , -16.7617190, 4.4779124, -49.9494497, 0.0065308, -0.3384399, 1.0192261, -5.9756098, 1.9817073, 60.4573171, -153.1250000, -329.3750000, -73.2500000
2021-10-24 10:35:09.711617 , -17.3804345, 3.8584066, -51.3868374, 0.0131226, -0.3571167, 0.9951172, 1.1585366, 3.1402439, 50.3353659, -142.3750000, -326.2500000, -69.6250000
2021-10-24 10:35:09.966692 , -17.0563966, 4.0279693, -51.1295917, -0.0186157, -0.2830200, 1.0369263, -4.2987805, -0.5182927, 75.5487805, -143.5000000, -320.3750000, -74.2500000
2021-10-24 10:35:10.212966 , -16.6453612, 4.0960356, -51.6649801, -0.0019531, -0.2869263, 1.0107422, 3.4146341, 8.5975610, 61.0975610, -145.0000000, -321.5000000, -63.8750000
2021-10-24 10:35:10.468416 , -16.7249414, 3.7975839, -53.3646768, 0.0157471, -0.3179321, 1.0334473, 1.7682927, 12.2865854, 36.4329268, -143.8750000, -322.3750000, -66.8750000
2021-10-24 10:35:10.714559 , -16.8315088, 3.6846136, -54.4442154, 0.0275269, -0.3115234, 1.0037842, 0.0609756, 14.2682927, 40.8536585, -148.7500000, -325.1250000, -78.1250000
2021-10-24 10:35:10.970132 , -15.8995421, 4.2989719, -54.6056898, -0.0704346, -0.2675781, 1.0122681, 10.3658537, 5.3048780, 36.9207317, -174.8750000, -332.5000000, -66.1250000
2021-10-24 10:35:11.265815 , -15.2455628, 5.2656864, -54.4254216, -0.0783081, -0.2635498, 1.0194092, 6.4634146, 13.6890244, 33.8109756, -189.2500000, -321.8750000, -67.2500000
2021-10-24 10:35:11.511210 , -15.4527862, 4.7667925, -51.5287933, -0.0310669, -0.2775269, 0.9988403, -8.3841463, -9.8170732, 55.9756098, -220.5000000, -289.6250000, -55.3750000
2021-10-24 10:35:11.775011 , -14.7090412, 6.0415907, -49.5872368, -0.0218506, -0.2805176, 1.0079956, -0.4573171, 6.7987805, 50.7317073, -238.0000000, -261.3750000, -24577.5000000
2021-10-24 10:35:12.018312 , -14.7178266, 5.2741656, -47.5378947, -0.0161743, -0.2811890, 0.9971313, -0.0609756, -4.0853659, 42.1646341, -199.3750000, -239.0000000, 64.3750000
2021-10-24 10:35:12.264560 , -15.5038315, 4.3974387, -46.5348366, -0.0226440, -0.2933960, 1.0489502, -4.2682927, 2.0426829, 64.2682927, -134.1250000, -229.7500000, 68.3750000
2021-10-24 10:35:12.511888 , -16.2040881, 2.5521511, -47.8384143, 0.0319824, -0.2891235, 1.0274658, -0.3353659, 1.6158537, 50.1524390, -107.2500000, -241.1250000, 30.3750000
2021-10-24 10:35:12.757661 , -15.0294310, 3.8290775, -45.5763785, 0.0652466, -0.2999268, 1.0337524, 3.7195122, -0.1524390, 60.8231707, -102.8750000, -249.6250000, -24578.5000000
2021-10-24 10:35:13.004355 , -15.6481822, 1.8844537, -48.1028808, 0.0619507, -0.2964478, 1.0175781, -0.1524390, -3.2926829, 46.2804878, -105.1250000, -261.6250000, -19.0000000
2021-10-24 10:35:13.251017 , -16.2179981, 0.0793897, -50.2151570, 0.1159058, -0.3085327, 1.0468750, -1.2804878, 1.0975610, 42.7134146, -106.3750000, -261.0000000, -19.8750000
2021-10-24 10:35:13.496777 , -16.3881125, -1.4394949, -51.3406922, 0.1484985, -0.2760620, 1.0222168, -2.3780488, 0.8536585, 51.6768293, -112.1250000, -266.7500000, -27.5000000
2021-10-24 10:35:13.743444 , -16.9439897, -2.0650349, -52.0433474, 0.1398926, -0.3123169, 1.0028687, -0.7621951, 8.2926829, 55.9146341, -115.7500000, -272.3750000, -28.7500000
2021-10-24 10:35:13.990028 , -17.6891309, -2.6875062, -52.7138124, 0.1388550, -0.3195801, 1.0140381, -6.5243902, 3.5365854, 54.2682927, -114.2500000, -273.0000000, -35.8750000
2021-10-24 10:35:14.236182 , -18.1710522, -2.5782928, -54.0054294, 0.1130371, -0.3248291, 1.0050659, -3.1402439, 14.1158537, 37.8353659, -118.1250000, -273.0000000, -37.1250000
2021-10-24 10:35:14.482564 , -18.4672880, -2.3410650, -54.2897666, 0.1170044, -0.3235474, 1.0140991, -2.7743902, 11.4939024, 52.9878049, -122.5000000, -278.8750000, -44.7500000
2021-10-24 10:35:14.728865 , -19.1300133, -1.7574685, -54.4965907, 0.0891113, -0.3564453, 1.0258179, -5.1829268, 12.8353659, 52.7743902, -123.0000000, -278.1250000, -42.7500000
2021-10-24 10:35:14.975133 , -19.4911060, -1.4626433, -54.2668362, 0.0924683, -0.3533325, 1.0045776, -1.3109756, 8.2317073, 57.5000000, -129.0000000, -283.1250000, -45.2500000
2021-10-24 10:35:15.221976 , -20.0313978, -1.1004576, -54.4469143, 0.0639038, -0.3662109, 0.9983521, -3.4756098, 5.7926829, 51.5853659, -127.6250000, -285.6250000, -50.6250000
2021-10-24 10:35:15.468472 , -20.5738716, -0.7299066, -54.5389325, 0.0570068, -0.3841553, 0.9998779, -2.0121951, 7.0121951, 48.6890244, -132.7500000, -287.2500000, -44.2500000
2021-10-24 10:35:15.715017 , -20.9590674, -0.2885668, -54.5561252, 0.0520630, -0.3851929, 1.0019531, -1.3109756, 8.8719512, 48.5060976, -136.0000000, -288.5000000, -42.8750000
2021-10-24 10:35:15.961309 , -21.0528810, -0.0192583, -54.5911520, 0.0690918, -0.3817749, 1.0244141, 0.1524390, 11.2804878, 48.1097561, -135.7500000, -285.1250000, -42.0000000
2021-10-24 10:35:16.207575 , -21.2025522, 0.1401129, -54.4385983, 0.0606689, -0.3806152, 1.0068359, -0.1219512, 7.0731707, 52.5914634, -135.1250000, -289.6250000, -41.8750000
2021-10-24 10:35:16.455737 , -21.2516167, 0.2288991, -54.3153758, 0.0584106, -0.3793945, 1.0111694, 0.7012195, 5.7317073, 52.8353659, -133.5000000, -287.6250000, -42.2500000
2021-10-24 10:35:16.702098 , -21.2494037, -0.0195495, -54.5254924, 0.0686035, -0.3770142, 1.0300903, -0.3658537, 3.6280488, 47.1646341, -130.7500000, -287.0000000, -42.7500000
2021-10-24 10:35:16.948443 , -21.2422550, -0.6989097, -54.5485591, 0.0958252, -0.3679199, 0.9939575, 1.0060976, -0.3048780, 49.9695122, -127.1250000, -283.8750000, -40.1250000
2021-10-24 10:35:17.194782 , -21.1251559, -1.2737815, -54.4979597, 0.1284180, -0.3585205, 1.0223389, -0.4573171, 4.1768293, 56.1890244, -123.3750000, -284.5000000, -41.6250000
2021-10-24 10:35:17.441387 , -21.1826428, -1.7709827, -54.7681414, 0.1326294, -0.3590088, 0.9991455, -1.0365854, 6.6463415, 52.9268293, -119.6250000, -285.3750000, -41.3750000
2021-10-24 10:35:17.687941 , -20.9100954, -2.2136947, -54.8162165, 0.1385498, -0.3483276, 1.0027466, 3.3536585, 5.0304878, 57.8353659, -115.7500000, -282.2500000, -41.1250000
2021-10-24 10:35:17.934767 , -20.4375797, -3.2634177, -55.5247229, 0.1719971, -0.3345337, 1.0164795, 4.2378049, 3.2317073, 43.4146341, -112.7500000, -278.6250000, -39.7500000
2021-10-24 10:35:18.181975 , -20.3864146, -3.9732862, -56.2284026, 0.1871948, -0.3164062, 0.9930420, -4.0243902, 9.2987805, 48.3841463, -102.5000000, -272.3750000, -38.5000000
2021-10-24 10:35:18.428537 , -20.3406642, -4.4324226, -56.8091679, 0.1820068, -0.3281250, 1.0084229, -1.5853659, 10.4268293, 47.5609756, -98.5000000, -268.0000000, -29.0000000
2021-10-24 10:35:18.675124 , -20.1454691, -4.7985181, -57.4041644, 0.1687622, -0.3215942, 1.0086060, 0.9756098, 9.6341463, 44.7560976, -91.8750000, -261.5000000, -17.1250000
2021-10-24 10:35:18.921220 , -12.3142747, -6.6182733, -55.4758607, 0.1885376, -0.3064575, 1.0123901, 2.4695122, -0.2439024, 42.1036585, -78.3750000, -249.2500000, 24577.1250000
2021-10-24 10:35:19.166997 , -13.8888232, -7.8271428, -55.5939510, 0.2358398, -0.3031616, 1.0052490, 1.6463415, 4.5426829, 60.7012195, -72.3750000, -242.1250000, 21.7500000
2021-10-24 10:35:19.413697 , -14.5046358, -7.8476873, -55.4247433, 0.2091675, -0.2771606, 1.0140381, 6.6768293, 19.3902439, 43.1707317, -77.5000000, -219.6250000, 59.2500000
2021-10-24 10:35:19.660089 , -14.0189807, -6.9736899, -53.1179388, 0.1901245, -0.2313843, 0.9939575, 8.7195122, 16.4634146, 51.0365854, -110.7500000, -209.3750000, 91.6250000
2021-10-24 10:35:19.906222 , -13.1074636, 0.6589915, -49.0124373, 0.0186768, -0.2072144, 1.0317383, -10.4878049, 100.7621951, 68.2926829, -197.1250000, -206.2500000, 108.1250000
2021-10-24 10:35:20.152741 , -13.9776144, 10.4413141, -45.2029695, -0.4026489, -0.2595825, 0.9569092, -29.1463415, 86.1890244, 57.1341463, -282.6250000, -225.7500000, 56.6250000
2021-10-24 10:35:20.399229 , -15.0095973, 20.0109785, -41.1561687, -0.6667480, -0.2958374, 0.7846069, -20.6707317, 54.1768293, 76.9817073, -312.1250000, -234.0000000, -29.1250000
2021-10-24 10:35:20.645352 , -16.4957450, 29.8110677, -40.5344450, -0.8053589, -0.2604370, 0.5606079, -12.4390244, 50.9451220, 53.2621951, -302.0000000, -258.8750000, -89.7500000
2021-10-24 10:35:20.891966 , -20.8998392, 37.0077967, -43.9004414, -0.8208008, -0.3222656, 0.4204712, -19.6036585, 28.8109756, 19.1768293, -284.6250000, -280.6250000, -118.3750000
2021-10-24 10:35:21.138305 , -25.0446247, 41.1520751, -46.6950581, -0.8098145, -0.4215698, 0.3650513, -9.7256098, -6.9817073, 44.1768293, -272.0000000, -293.3750000, -109.1250000
2021-10-24 10:35:21.384767 , -28.2741767, 40.9542496, -49.8938156, -0.7158203, -0.4453735, 0.4371338, -0.1829268, -33.9329268, 33.1707317, -254.3750000, -307.1250000, -77.1250000
2021-10-24 10:35:21.631102 , -27.9024395, 33.4593311, -51.2257130, -0.5443726, -0.5174561, 0.7220459, 19.2682927, -95.4268293, 25.1524390, -211.2500000, -309.8750000, -43.3750000
2021-10-24 10:35:21.877347 , -26.7529381, 17.3310043, -53.0881294, 0.0478516, -0.5463867, 0.8880005, 14.6951220, -165.9146341, 19.1768293, -112.5000000, -287.6250000, -47.0000000
2021-10-24 10:35:22.134965 , -22.7396162, 0.0985180, -55.7977264, 0.7644043, -0.2263794, 0.6987305, 32.3780488, -136.8597561, 35.4573171, -47.1250000, -270.1250000, -98.0000000
2021-10-24 10:35:22.390169 , -25.2432045, -15.8008553, -58.4473661, 1.0133667, -0.2345581, 0.1862793, -26.5243902, -116.4329268, 36.1280488, -31.7500000, -261.7500000, -149.0000000
2021-10-24 10:35:22.666356 , -28.7670770, -28.5247369, -60.0389724, 1.1130371, -0.2063599, -0.1353149, -0.6707317, -65.3048780, 56.2195122, -26.0000000, -256.2500000, -170.5000000
2021-10-24 10:35:22.913205 , -27.8008043, -47.0618946, -68.0099554, 1.0870972, -0.3120728, -0.2915039, 7.5000000, -16.8902439, 50.9451220, 32763.0000000, -244.5000000, -165.5000000
2021-10-24 10:35:23.169819 , -35.9537623, -56.0199207, -69.2828400, 1.0739746, -0.1830444, -0.2606812, -23.6890244, -1.5548780, 36.0060976, 40.6250000, -190.6250000, -148.5000000
2021-10-24 10:35:23.424679 , -45.1702595, -62.7335543, -67.0833564, 1.0622559, -0.1858521, -0.1571655, -8.4756098, 37.1951220, 71.2500000, 95.6250000, -138.2500000, -91.7500000
2021-10-24 10:35:23.670264 , -45.8330643, -58.3046049, -66.3207051, 1.0744019, -0.2528687, 0.1195679, 8.7195122, 111.3109756, 102.1646341, 119.7500000, -44.8750000, 44.7500000
2021-10-24 10:35:23.927476 , -33.0096332, -43.6314510, -77.3374586, 0.7883301, -0.4302979, 0.6317749, -74.9695122, 150.7926829, 127.5914634, 70.0000000, -53.0000000, 105.6250000
2021-10-24 10:35:24.181446 , -25.1138715, -38.5210562, -85.9826967, 0.3223267, -0.7451782, 0.8737793, 64.7560976, 102.3780488, 92.8658537, 8212.6250000, -43.0000000, 110.5000000
2021-10-24 10:35:24.455121 , -20.1505190, -29.1162338, -76.9377897, 0.1206055, -0.5175171, 1.0972290, 98.9634146, 7.4390244, 41.7378049, -89.8750000, -161.2500000, 68.8750000
2021-10-24 10:35:24.698529 , -17.3486467, -24.3708593, -70.9064084, 0.2031250, -0.1745605, 1.0215454, 24.9695122, 0.8841463, 45.6707317, -123.5000000, -207.8750000, 17.6250000
2021-10-24 10:35:24.940529 , -15.3841754, -14.4535389, -73.8029392, 0.1734619, -0.0571899, 0.9359131, 23.1402439, 18.3536585, 19.5731707, -132.1250000, -212.7500000, -32765.5000000
2021-10-24 10:35:25.182611 , -14.3841000, -8.7556889, -73.3169716, 0.1584473, -0.0333862, 0.9793091, -10.3353659, 2.1036585, 51.8902439, -132.8750000, -218.7500000, -24575.7500000
2021-10-24 10:35:25.427409 , -13.2025090, -5.6089298, -72.2941612, 0.1787109, -0.0906982, 0.9793701, -4.3292683, 6.6158537, 45.6097561, -131.6250000, -223.0000000, -16387.2500000
2021-10-24 10:35:25.674118 , -11.6268138, -3.9720712, -71.2467875, 0.1762695, -0.0375977, 0.9550781, -11.3414634, 6.4939024, 39.2682927, -129.7500000, -223.5000000, -16392.8750000
2021-10-24 10:35:25.920347 , -10.3742346, -4.4630455, -65.7726317, 0.1708984, -0.0504150, 0.9441528, -7.2865854, 0.8231707, 69.7865854, -132.5000000, -232.5000000, -14.2500000
2021-10-24 10:35:26.165909 , -11.0737902, -4.3708053, -63.4507216, 0.2380981, -0.1785889, 1.0297852, -15.0914634, 33.3536585, 34.9085366, -134.2500000, -244.3750000, -29.7500000
2021-10-24 10:35:26.412058 , -11.5400507, -2.0568113, -61.4712324, 0.1264038, -0.2021484, 1.0234985, -7.7439024, 51.6463415, 44.7865854, -136.2500000, -252.7500000, -32.8750000
2021-10-24 10:35:26.658247 , -10.9007064, -2.4710701, -58.5429400, 0.1651611, -0.2156372, 1.0208740, 17.8658537, 9.6341463, 66.9817073, -133.1250000, -247.8750000, -38.1250000
2021-10-24 10:35:26.904196 , -9.8214476, -0.3804074, -56.6914853, 0.0648804, -0.1314087, 1.0448608, 7.4390244, 38.6280488, 56.2195122, -142.8750000, -250.3750000, -34.5000000
2021-10-24 10:35:27.150584 , -9.4947892, 0.6525196, -54.6914501, 0.0323486, -0.1420898, 1.0422363, -2.1951220, 17.5000000, 63.2317073, -146.7500000, -257.2500000, -37.6250000
2021-10-24 10:35:27.397427 , -10.6016931, 0.0124135, -55.3529912, 0.0980225, -0.2628174, 1.0220337, -0.6402439, 10.9756098, 20.8231707, -141.8750000, -262.2500000, -38.1250000
2021-10-24 10:35:27.643184 , -9.8783500, -1.4720068, -55.6628316, 0.1016846, -0.1376343, 1.0087280, 2.5914634, -10.1219512, 30.1219512, -129.0000000, -257.6250000, -42.0000000
2021-10-24 10:35:27.889722 , -9.9223636, -2.0278993, -54.5456514, 0.1025391, -0.1698608, 1.0119629, -0.9756098, -2.5000000, 57.5914634, -131.2500000, -256.1250000, -42.3750000
2021-10-24 10:35:28.136777 , -10.1330580, -2.9654869, -54.3421078, 0.1335449, -0.1846313, 1.0322876, -1.8292683, -3.4756098, 43.5365854, -129.5000000, -254.3750000, -39.8750000
2021-10-24 10:35:28.383176 , -10.7582375, -3.3589875, -54.8752667, 0.1340332, -0.1781616, 1.0299072, -12.8658537, 5.1219512, 34.5121951, -128.0000000, -261.0000000, -42.3750000
2021-10-24 10:35:28.629055 , -12.6890081, -3.5836099, -53.9973071, 0.1622314, -0.2852173, 1.0153809, -14.9085366, 8.2012195, 61.0365854, -132.2500000, -268.8750000, -44.2500000
2021-10-24 10:35:28.875536 , -13.7522864, -3.6850763, -53.1705063, 0.1433716, -0.2988281, 1.0048218, -0.7621951, 4.8475610, 59.0853659, -135.2500000, -264.1250000, -43.0000000
2021-10-24 10:35:29.121992 , -14.4629949, -3.7049188, -53.1960896, 0.1214600, -0.2897339, 1.0142822, -1.6768293, 5.5487805, 36.9817073, -140.6250000, -256.1250000, -37.6250000
2021-10-24 10:35:29.368282 , -14.7729855, -2.9064689, -52.2885769, 0.1011963, -0.2958984, 1.0010986, 6.6463415, 15.8841463, 47.0426829, -144.3750000, -242.1250000, -18.5000000
2021-10-24 10:35:29.614390 , -15.3871472, -4.0038648, -50.6642898, 0.0849609, -0.2693481, 1.0258789, -7.5000000, -24.5731707, 47.6829268, -142.1250000, -232.5000000, 13.2500000
2021-10-24 10:35:29.865457 , -16.2548903, -4.3749557, -49.3012363, 0.1775513, -0.3082275, 0.9788818, 0.5487805, 11.0365854, 58.0487805, -140.1250000, -249.2500000, 45.0000000
2021-10-24 10:35:30.111242 , -16.6442844, -4.0863106, -47.9700800, 0.1342163, -0.2941284, 1.0291138, 1.3109756, 11.9207317, 57.4085366, -142.7500000, -255.3750000, 68.8750000
2021-10-24 10:35:30.357185 , -16.8162226, -3.8673482, -46.4108902, 0.0874023, -0.2802124, 1.0579224, 1.0060976, 0.6707317, 59.5731707, -135.1250000, -245.8750000, 89.6250000
2021-10-24 10:35:30.604060 , -16.7761894, -4.5736459, -45.0754136, 0.1417847, -0.2384644, 1.0041504, 2.3170732, 0.8841463, 63.0487805, -119.5000000, -232.2500000, 93.0000000
2021-10-24 10:35:30.850627 , -19.3423639, -4.6914489, -45.1673951, 0.1019287, -0.2576904, 1.0632935, -46.3414634, 7.7743902, 54.6646341, -112.2500000, -244.7500000, 72.6250000
2021-10-24 10:35:31.097196 , -19.0491048, -3.9713730, -44.1017680, 0.1112671, -0.3264771, 1.0345459, 14.6341463, 14.2073171, 64.7560976, -114.7500000, -212.5000000, 62.6250000
2021-10-24 10:35:31.343404 , -18.3897149, -2.7351772, -43.4195139, 0.0648193, -0.2702637, 1.0183716, 9.0853659, 20.1829268, 53.1402439, -121.2500000, -205.7500000, 71.0000000
2021-10-24 10:35:31.589891 , -18.9561347, -2.8609053, -43.4793866, 0.0587769, -0.2708740, 1.0288696, -9.7256098, 4.5731707, 45.9451220, -119.7500000, -224.2500000, 71.7500000
2021-10-24 10:35:31.836033 , -18.7433003, -3.0636705, -44.1081143, 0.0701904, -0.2470703, 1.0401611, -1.4024390, 9.3902439, 38.3536585, -123.0000000, -242.8750000, 77.5000000
2021-10-24 10:35:32.082303 , -19.5124288, -4.1271816, -44.1719751, 0.1124878, -0.2709961, 0.9901123, -12.4390244, -3.0487805, 48.2621951, -129.8750000, -255.6250000, 68.2500000
2021-10-24 10:35:32.328713 , -20.1077904, -4.6917899, -44.4756395, 0.1032104, -0.3123169, 1.0090942, -4.0548780, -1.7073171, 47.0121951, -135.3750000, -269.0000000, 54.3750000
2021-10-24 10:35:32.574576 , -20.3530878, -4.1074095, -44.4800439, 0.1151733, -0.3233032, 1.0021973, 0.3963415, 16.4634146, 52.3780488, -141.7500000, -254.6250000, 41.5000000
2021-10-24 10:35:32.820875 , -20.0575714, -4.3399899, -44.0893849, 0.1251221, -0.3154907, 0.9730225, 10.7012195, 1.6158537, 58.3536585, -142.3750000, -250.7500000, 28.6250000
2021-10-24 10:35:33.066439 , -18.4797691, 0.2311291, -43.2036140, 0.1011353, -0.3218384, 1.0168457, -0.0304878, 3.9024390, 53.5060976, -139.1250000, -243.5000000, -24573.5000000
2021-10-24 10:35:33.313090 , -18.1807889, 0.1034354, -44.3783971, 0.0844727, -0.2959595, 1.0091553, 4.7560976, 15.1829268, 46.9512195, -149.3750000, -245.8750000, -21.8750000
2021-10-24 10:35:33.558880 , -17.3373773, 0.3253154, -45.1955461, 0.0797729, -0.2518921, 0.9868164, 5.7012195, 15.0000000, 58.5060976, -146.2500000, -251.5000000, -41.6250000
2021-10-24 10:35:33.805414 , -16.1324585, 0.1140513, -46.3218666, 0.0602417, -0.2311401, 1.0605469, 7.6219512, 5.0000000, 47.3780488, -146.6250000, -259.3750000, -38.2500000
2021-10-24 10:35:34.051780 , -15.0925789, 0.2284394, -47.0273255, 0.0876465, -0.2190552, 1.0563965, 6.4329268, 16.0365854, 53.5060976, -147.2500000, -258.8750000, -34.8750000
2021-10-24 10:35:34.298019 , -14.2024708, 0.1167819, -48.0898311, 0.0785522, -0.2086792, 1.0070190, 6.9207317, 13.2621951, 41.8292683, -148.6250000, -260.6250000, -36.1250000
2021-10-24 10:35:34.544309 , -12.6089028, 0.5566639, -48.3434798, 0.0239258, -0.1569214, 0.9920654, 13.0792683, 8.5975610, 50.3353659, -152.8750000, -263.3750000, -30.8750000
2021-10-24 10:35:34.791497 , -11.4148855, 1.8385248, -48.4749760, 0.0255737, -0.1569214, 1.0225220, 9.7256098, 28.3231707, 53.8109756, -153.0000000, -258.3750000, -29.5000000
2021-10-24 10:35:35.048530 , -10.8706651, 2.4141079, -48.1215327, 0.0084839, -0.1385498, 1.0239258, -4.8170732, 14.1768293, 59.3292683, -154.3750000, -258.2500000, -31.6250000
2021-10-24 10:35:35.294213 , -10.0410803, 1.8120174, -48.0826613, 0.0339355, -0.1305542, 1.0066528, 1.6768293, 0.1524390, 53.2621951, -152.0000000, -257.8750000, -32.8750000
2021-10-24 10:35:35.550331 , -10.0631538, 0.4830170, -49.0337774, 0.0452881, -0.1292114, 1.0061646, -12.5304878, -11.7682927, 33.0487805, -150.7500000, -261.1250000, -36.5000000
2021-10-24 10:35:35.808161 , -10.1490762, -0.5493755, -49.8307116, 0.0665894, -0.1378784, 1.0057373, -11.3414634, -7.1341463, 35.2134146, -150.8750000, -266.7500000, -37.8750000
2021-10-24 10:35:36.053780 , -11.6220005, -0.2350425, -49.5710066, 0.0570679, -0.2830811, 1.0266113, -5.6097561, 10.2439024, 51.4024390, -153.3750000, -258.6250000, -34.1250000
2021-10-24 10:35:36.309254 , -12.5319288, 0.0726853, -49.4031774, 0.0674438, -0.2478638, 1.0162354, -6.9512195, 15.7926829, 48.8414634, -148.7500000, -246.7500000, -20.8750000
2021-10-24 10:35:36.555507 , -13.6979393, -0.7245807, -48.7177937, 0.0739746, -0.2862549, 1.0225830, -5.3353659, -1.6158537, 45.2743902, -149.0000000, -236.5000000, 22.2500000
2021-10-24 10:35:36.811692 , -14.2477954, -0.1170458, -47.9188241, 0.0651245, -0.2696533, 1.0221558, 0.7926829, 23.0792683, 49.6951220, -153.6250000, -248.8750000, 63.3750000
2021-10-24 10:35:37.104994 , -14.7092857, -0.6660894, -47.4799510, 0.0834351, -0.2707520, 1.0141602, 2.8963415, 10.0914634, 43.1097561, -151.2500000, -253.5000000, 75.6250000
2021-10-24 10:35:37.350768 , -15.7097025, -1.7605434, -47.1493490, 0.1120605, -0.2777100, 1.0155029, -5.4878049, 5.8231707, 46.9817073, -141.1250000, -259.6250000, 83.0000000
2021-10-24 10:35:37.595205 , -16.4497379, -4.4011093, -47.4246854, 0.1042480, -0.2940063, 1.0559692, 1.4634146, -26.4634146, 36.3719512, -119.8750000, -262.3750000, 85.6250000
2021-10-24 10:35:37.841410 , -17.7090061, -5.4700919, -47.1460250, 0.1811523, -0.3054199, 0.9916992, -7.1951220, 7.2256098, 44.0243902, -126.2500000, -260.3750000, 94.5000000
2021-10-24 10:35:38.088477 , -18.7058629, -6.3308756, -46.7191721, 0.1420898, -0.3346558, 1.0238647, -0.7621951, -4.7865854, 46.0975610, -115.8750000, -253.1250000, 87.5000000
2021-10-24 10:35:38.335643 , -19.3530430, -6.3422120, -47.1341793, 0.0968018, -0.2916870, 1.0220947, -5.5182927, 4.3902439, 39.7256098, -104.5000000, -255.8750000, 83.6250000
2021-10-24 10:35:38.582089 , -20.3192160, -6.2040119, -47.2577029, 0.1184082, -0.3579712, 1.0303345, -1.8292683, 8.3841463, 43.0792683, -110.5000000, -260.3750000, 80.0000000
2021-10-24 10:35:38.828811 , -20.5571850, -6.2049727, -47.0818714, 0.1184692, -0.3126221, 1.0103760, 0.8536585, 4.9390244, 47.9268293, -105.7500000, -255.8750000, 83.1250000
2021-10-24 10:35:39.075268 , -20.5572887, -6.0336670, -46.6840411, 0.1190186, -0.2990723, 1.0266113, 0.6707317, 5.7926829, 53.2621951, -108.7500000, -257.8750000, 82.1250000
2021-10-24 10:35:39.320846 , -20.5102674, -5.5786107, -46.3126372, 0.1158447, -0.2929077, 1.0170288, -0.1524390, 10.6402439, 53.9329268, -117.7500000, -263.1250000, 79.1250000
2021-10-24 10:35:39.566401 , -20.5440290, -5.3167613, -46.3604468, 0.1380005, -0.3136597, 1.0252075, 1.5548780, 15.0609756, 49.4512195, -125.2500000, -268.0000000, 67.0000000
2021-10-24 10:35:39.812970 , -20.9253690, -4.8737906, -45.9852712, 0.0922852, -0.3367920, 1.0475464, -2.7134146, 4.3597561, 55.1219512, -127.0000000, -260.0000000, 54.1250000
2021-10-24 10:35:40.059473 , -20.3834389, -4.5641180, -45.8023686, 0.1437378, -0.2885132, 0.9971924, 4.6951220, 14.9695122, 55.3353659, -134.1250000, -249.7500000, 34.5000000
2021-10-24 10:35:40.305790 , -19.3716572, -2.5082814, -45.5537509, 0.0751343, -0.2858276, 1.0284424, 10.0609756, 30.7012195, 58.7500000, -144.2500000, -234.3750000, 9.8750000
2021-10-24 10:35:40.551915 , -18.8513903, -1.5575110, -45.5038751, 0.0827026, -0.2495728, 1.0055542, -4.4207317, 17.9573171, 62.5609756, -146.2500000, -242.6250000, -15.7500000
2021-10-24 10:35:40.797449 , -16.9768941, -2.1358844, -45.8980848, 0.1063232, -0.1865234, 0.9828491, 9.6951220, -1.9512195, 54.5121951, -145.3750000, -247.1250000, -33.2500000
2021-10-24 10:35:41.044657 , -16.0716899, -0.6751611, -45.3939927, 0.0893555, -0.2083740, 1.0263062, 1.0060976, 25.6402439, 81.7682927, -149.6250000, -256.1250000, -35.7500000
2021-10-24 10:35:41.291087 , -13.8650006, -1.1319547, -46.8013405, 0.1046143, -0.1405029, 1.0170898, 13.7500000, 9.1768293, 39.3597561, -147.6250000, -255.0000000, -35.0000000
2021-10-24 10:35:41.538021 , -12.2055026, -1.0704199, -48.0783343, 0.1124268, -0.1339111, 1.0056152, 10.1219512, 19.8475610, 40.9146341, -144.8750000, -256.7500000, -32.8750000
2021-10-24 10:35:41.784639 , -10.1748735, -1.2914990, -48.4649277, 0.0950928, -0.0940552, 1.0148315, 13.8109756, 7.2865854, 47.5304878, -145.0000000, -247.6250000, -33.2500000
2021-10-24 10:35:42.030957 , -9.6346711, -1.5545317, -48.7713294, 0.0963745, -0.1108398, 1.0584106, -5.7012195, 4.4817073, 50.0914634, -142.0000000, -250.6250000, -33.7500000
2021-10-24 10:35:42.277034 , -9.3061248, -2.1549598, -48.8459958, 0.1142578, -0.1058350, 0.9968262, -7.0731707, 2.0121951, 53.0182927, -144.1250000, -254.5000000, -32.2500000
2021-10-24 10:35:42.523440 , -10.8528883, -2.6334846, -49.2784851, 0.1198730, -0.1932373, 1.0229492, -23.8109756, 2.6219512, 47.9573171, -144.2500000, -262.3750000, -35.3750000
2021-10-24 10:35:42.769808 , -13.1650438, -3.6855802, -49.7907497, 0.1152954, -0.2672729, 1.0391846, -29.2073171, -13.8109756, 44.3902439, -142.0000000, -266.7500000, -39.8750000
2021-10-24 10:35:43.016161 , -15.9545770, -3.9675005, -49.7606057, 0.1694946, -0.3243408, 1.0110474, -32.7743902, 6.0060976, 60.6402439, -143.0000000, -276.0000000, -47.8750000
2021-10-24 10:35:43.262140 , -16.9535580, -4.4934923, -50.0607505, 0.1816406, -0.3764038, 0.9354858, 11.9512195, 8.5365854, 49.3292683, -136.3750000, -259.6250000, -33.7500000
2021-10-24 10:35:43.508413 , -14.8198239, -6.9646027, -53.5812284, 0.2439575, -0.2387695, 0.9859619, 32.5304878, 0.4573171, -7.1646341, -94.5000000, -211.5000000, -14.0000000
2021-10-24 10:35:43.754123 , -13.4049731, -11.3946308, -62.4121895, 0.2745972, -0.1239624, 0.9855957, -25.6097561, -31.1890244, -107.8963415, -55.5000000, -146.0000000, -39.2500000
2021-10-24 10:35:44.000592 , -17.4340243, -9.4114235, -62.9821040, 0.1666870, -0.1601562, 1.2645264, -109.6951220, 16.7378049, 21.7378049, -73.8750000, -157.0000000, -51.6250000
2021-10-24 10:35:44.246217 , -19.1371479, -9.3260679, -60.7168561, 0.3497925, -0.3063354, 0.9050293, -22.1951220, 32.1036585, 62.6219512, -84.2500000, -169.5000000, -40.0000000
2021-10-24 10:35:44.492756 , -19.9582089, -8.4917995, -58.9303543, 0.2025146, -0.3878784, 0.9951782, -0.5487805, 7.6829268, 49.8170732, -87.7500000, -167.7500000, -42.8750000
2021-10-24 10:35:44.739342 , -20.5350588, -7.8315294, -57.4264806, 0.2000732, -0.3863525, 0.9974976, -0.0914634, 7.0426829, 49.3292683, -89.1250000, -166.8750000, -40.7500000
2021-10-24 10:35:44.985405 , -20.9763972, -7.3431102, -56.2962221, 0.2019653, -0.3853760, 0.9979858, -0.2743902, 6.9207317, 49.2987805, -88.3750000, -166.7500000, -40.6250000
2021-10-24 10:35:45.231361 , -21.3091178, -6.9345300, -55.5574296, 0.2009277, -0.3850098, 0.9973145, -0.1219512, 7.2256098, 49.5121951, -87.1250000, -168.0000000, -43.0000000
2021-10-24 10:35:45.477613 , -21.5510906, -6.6526193, -54.9659792, 0.2014160, -0.3824463, 0.9984131, -0.1219512, 7.2256098, 49.4817073, -86.0000000, -167.7500000, -38.6250000
2021-10-24 10:35:45.726151 , -21.7335288, -6.4416486, -54.5161824, 0.2009888, -0.3818970, 0.9987793, -0.1829268, 6.9817073, 49.3597561, -85.6250000, -166.7500000, -39.2500000
2021-10-24 10:35:45.972695 , -21.8677045, -6.3455344, -54.1369271, 0.2056274, -0.3808594, 0.9987183, -0.3048780, 6.5853659, 49.2682927, -87.5000000, -168.8750000, -40.6250000
2021-10-24 10:35:46.219059 , -21.9589938, -6.2482125, -53.6301495, 0.2055054, -0.3796997, 0.9991455, -0.3963415, 6.8597561, 49.2987805, -89.7500000, -166.3750000, -39.0000000
2021-10-24 10:35:46.464474 , -22.0723345, -6.2514303, -53.3211663, 0.2050781, -0.3788452, 0.9984131, -0.2743902, 6.9512195, 49.3292683, -85.1250000, -166.5000000, -30.1250000
2021-10-24 10:35:46.711130 , -14.5438610, -7.4888568, -50.9926892, 0.2059937, -0.3768311, 0.9990234, -0.1829268, 6.8597561, 49.3597561, -91.5000000, -157.2500000, 8217.7500000
2021-10-24 10:35:46.957270 , -16.9320151, -9.2317289, -55.1430815, 0.2078857, -0.3767700, 0.9993286, -0.4268293, 6.8902439, 49.3902439, -259.3750000, -8247.3750000, 276.2500000
2021-10-24 10:35:47.204147 , -13.4225047, -7.1125377, -43.6707707, 0.2078247, -0.3769531, 0.9988403, -0.2134146, 7.0731707, 49.5121951, -581.8750000, 105.3750000, 400.3750000
2021-10-24 10:35:47.450497 , -9.1914571, -5.7491303, -36.1586768, 0.2090454, -0.3772583, 0.9993286, -1.2804878, 6.8902439, 49.3597561, -642.3750000, 52.5000000, 815.6250000
2021-10-24 10:35:47.709475 , -7.5850764, -5.0383357, -30.0584342, 0.2092285, -0.3770142, 0.9985352, -0.4268293, 7.2865854, 49.4817073, -816.6250000, -71.8750000, 1026.1250000
2021-10-24 10:35:47.975210 , -6.3450446, -4.9790987, -23.3598267, 0.2072144, -0.3763428, 0.9990845, -0.3353659, 6.9817073, 49.4512195, -692.0000000, 45.6250000, 749.6250000
2021-10-24 10:35:48.230616 , -10.9374924, -7.5167168, -31.3834006, 0.2080688, -0.3775024, 0.9980469, -0.5792683, 7.2865854, 49.4512195, -600.1250000, -8222.2500000, 592.0000000
2021-10-24 10:35:48.485816 , -9.2153991, -7.1449394, -21.2000031, 0.2081299, -0.3747559, 0.9971313, -0.5182927, 7.1951220, 49.3902439, -571.0000000, 176.7500000, 411.1250000
2021-10-24 10:35:48.733159 , -9.2779085, -7.3410080, -10.6467522, 0.2069092, -0.3765259, 0.9981689, -0.5182927, 7.1341463, 49.4512195, -610.1250000, 262.8750000, 335.0000000
2021-10-24 10:35:48.988494 , -10.1603950, -7.6397840, -1.3204963, 0.2067871, -0.3756714, 0.9981079, -0.3353659, 7.1341463, 49.4512195, -567.6250000, 246.6250000, 287.1250000
2021-10-24 10:35:49.234556 , -11.5983735, -7.8366293, 6.4459934, 0.2072144, -0.3748169, 0.9984131, -0.4573171, 7.1951220, 49.4207317, -549.8750000, 227.1250000, 253.1250000
2021-10-24 10:35:49.490392 , -13.0803835, -7.9228460, 12.9543891, 0.2067871, -0.3742676, 0.9993286, -0.5182927, 7.1341463, 49.4207317, -558.5000000, 237.8750000, 259.8750000
2021-10-24 10:35:49.775204 , -14.5249147, -7.9152934, 18.4393612, 0.2087402, -0.3746338, 0.9988403, -0.4268293, 7.0731707, 49.4207317, -547.0000000, 245.0000000, 251.7500000
2021-10-24 10:35:50.030100 , -15.8670724, -7.8001662, 22.8042869, 0.2094116, -0.3740845, 0.9985352, -0.4878049, 7.0731707, 49.4512195, -549.0000000, 243.8750000, 249.6250000
2021-10-24 10:35:50.274223 , -17.0627198, -7.5913389, 26.2538509, 0.2089844, -0.3746948, 1.0000000, -0.4573171, 7.1036585, 49.4207317, -547.0000000, 243.0000000, 239.7500000
2021-10-24 10:35:50.520489 , -18.0685515, -7.3556514, 28.9880866, 0.2103271, -0.3735352, 0.9999390, -0.4573171, 7.1341463, 49.4207317, -543.2500000, 244.0000000, 227.8750000
2021-10-24 10:35:50.767066 , -18.8981730, -7.0955394, 31.2340102, 0.2086792, -0.3734741, 0.9990845, -0.5487805, 7.0731707, 49.4817073, -551.8750000, 256.2500000, 220.2500000
2021-10-24 10:35:51.013575 , -19.5530758, -6.8400975, 33.0254892, 0.2085571, -0.3732300, 0.9996948, -0.3963415, 7.1341463, 49.4207317, -549.6250000, 257.8750000, 217.8750000
2021-10-24 10:35:51.259797 , -20.0752292, -6.5975303, 34.3918524, 0.2085571, -0.3724976, 1.0003052, -0.4878049, 7.1646341, 49.4817073, -539.0000000, 251.2500000, 211.5000000
2021-10-24 10:35:51.505126 , -20.4956909, -6.3740238, 35.4027556, 0.2077026, -0.3731689, 1.0000000, -0.4573171, 7.1036585, 49.3902439, -548.8750000, 254.1250000, 209.6250000
2021-10-24 10:35:51.751569 , -20.8072638, -6.1924875, 36.2693618, 0.2088623, -0.3724365, 1.0005493, -0.4878049, 7.1646341, 49.3902439, -543.2500000, 257.1250000, 205.1250000
2021-10-24 10:35:51.997971 , -21.0789234, -6.0212664, 36.8609263, 0.2087402, -0.3728027, 0.9995117, -0.4878049, 7.1646341, 49.4817073, -531.7500000, 245.0000000, 203.7500000
2021-10-24 10:35:52.244227 , -21.2770537, -5.8979266, 37.3998459, 0.2103271, -0.3729248, 1.0003662, -0.5182927, 7.1646341, 49.4207317, -527.8750000, 248.8750000, 199.7500000
2021-10-24 10:35:52.490968 , -21.4179449, -5.7775627, 37.7939526, 0.2086792, -0.3724976, 1.0009766, -0.4878049, 7.1036585, 49.4512195, -529.7500000, 249.5000000, 196.0000000
2021-10-24 10:35:52.737300 , -21.5297189, -5.6551340, 38.1746213, 0.2072754, -0.3726196, 0.9998779, -0.3963415, 7.2256098, 49.4512195, -516.0000000, 246.2500000, 194.1250000
2021-10-24 10:35:52.983596 , -21.6067318, -5.5796497, 38.4637953, 0.2086182, -0.3720093, 1.0000610, -0.5182927, 7.1036585, 49.3902439, -513.1250000, 245.8750000, 188.8750000
2021-10-24 10:35:53.231007 , -21.6612037, -5.5327632, 38.6872854, 0.2094116, -0.3723755, 0.9994507, -0.4878049, 7.1036585, 49.3902439, -516.0000000, 248.6250000, 185.5000000
2021-10-24 10:35:53.477728 , -21.7140727, -5.4562622, 38.7958534, 0.2077637, -0.3715210, 0.9990845, -0.3963415, 7.1951220, 49.4207317, -505.3750000, 237.7500000, 186.6250000
2021-10-24 10:35:53.724179 , -21.7403186, -5.4226079, 38.9513717, 0.2093506, -0.3715210, 0.9998779, -0.5182927, 7.1341463, 49.4512195, -502.7500000, 241.7500000, 182.3750000
2021-10-24 10:35:53.970666 , -21.7649442, -5.3847491, 39.0466806, 0.2083130, -0.3722534, 0.9996948, -0.5182927, 7.1646341, 49.4207317, -503.8750000, 241.7500000, 180.1250000
2021-10-24 10:35:54.216861 , -21.7891284, -5.3479106, 39.0345046, 0.2080688, -0.3719482, 0.9992065, -0.5182927, 7.1646341, 49.4207317, -499.5000000, 235.0000000, 177.3750000
2021-10-24 10:35:54.462350 , -21.7976625, -5.3285737, 39.0360921, 0.2089844, -0.3717651, 0.9996948, -0.4573171, 7.1646341, 49.4512195, -501.0000000, 236.5000000, 177.3750000
2021-10-24 10:35:54.708614 , -21.7985957, -5.3246252, 39.1313801, 0.2095337, -0.3710938, 0.9994507, -0.4878049, 7.0731707, 49.4207317, -497.5000000, 239.1250000, 179.3750000
2021-10-24 10:35:54.954918 , -21.8027529, -5.3116895, 39.1582275, 0.2083130, -0.3717651, 0.9989014, -0.5182927, 7.1036585, 49.4512195, -490.3750000, 234.5000000, 172.3750000
2021-10-24 10:35:55.201581 , -21.7818062, -5.3073589, 39.0403895, 0.2081299, -0.3710938, 0.9996948, -0.5182927, 7.1341463, 49.3902439, -477.8750000, 224.1250000, 159.7500000
2021-10-24 10:35:55.447968 , -21.9188022, -5.2288848, 38.0638579, 0.2103882, -0.3703003, 1.0011597, -0.3963415, 7.0121951, 49.4207317, -384.5000000, 138.2500000, 136.2500000
2021-10-24 10:35:55.694221 , -22.7298142, -4.8294722, 35.0612335, 0.2080078, -0.3714600, 0.9995117, -0.1829268, 7.3475610, 49.5426829, -268.2500000, 26.7500000, 96.7500000
2021-10-24 10:35:55.940608 , -24.7275746, -4.2642069, 30.5204235, 0.2084961, -0.3691406, 0.9995728, -0.2439024, 7.2256098, 49.4817073, -267.3750000, -56.2500000, 103.1250000
2021-10-24 10:35:56.187038 , -27.3943866, -3.9645625, 25.1843949, 0.2070312, -0.3692627, 1.0002441, -0.3353659, 7.1341463, 49.3902439, -302.0000000, -146.1250000, 109.8750000
2021-10-24 10:35:56.433463 , -31.0584006, -4.4488930, 19.3182790, 0.2086792, -0.3688354, 0.9997559, -0.5182927, 7.0731707, 49.4817073, -255.0000000, -241.6250000, 91.5000000
2021-10-24 10:35:56.680173 , -33.3464525, -5.0314240, 12.9683139, 0.2075195, -0.3697510, 0.9997559, -0.4878049, 7.0426829, 49.4512195, -240.5000000, -246.0000000, 47.2500000
2021-10-24 10:35:56.927442 , -32.4231101, -5.3038075, 7.0578197, 0.2014160, -0.2960205, 1.0165405, 24.8780488, 8.3536585, 53.9634146, -229.5000000, -230.5000000, 29.2500000
2021-10-24 10:35:57.174488 , -24.7112907, -9.7567936, 11.2217279, 0.2023926, -0.2834473, 1.0108032, -6.4024390, 6.0060976, 48.9329268, -207.1250000, -239.8750000, 16389.3750000
2021-10-24 10:35:57.421248 , -24.7924339, -9.1932371, 3.1640173, 0.2084961, -0.3047485, 1.0098267, -0.5182927, 6.2500000, 48.5365854, -215.5000000, -228.7500000, -20.7500000
2021-10-24 10:35:57.667150 , -22.9733697, -8.7274406, -3.9294012, 0.2144775, -0.2538452, 1.0132446, 12.1951220, 5.4268293, 49.6036585, -225.5000000, -223.0000000, -35.7500000
2021-10-24 10:35:57.913728 , -23.1423418, -8.4698326, -10.1292269, 0.2202148, -0.2824097, 1.0039673, -13.4451220, 8.0487805, 49.1768293, -207.0000000, -220.1250000, -27.6250000
2021-10-24 10:35:58.160471 , -22.9383168, -7.8329392, -15.2051260, 0.2030640, -0.3044434, 1.0161133, -6.3109756, 11.5243902, 48.8109756, -197.2500000, -202.0000000, -27.3750000
2021-10-24 10:35:58.406909 , -22.5606044, -7.6311554, -18.9749451, 0.2092285, -0.3178711, 1.0044556, -0.4268293, 5.8841463, 49.7560976, -192.0000000, -189.3750000, -25.3750000
2021-10-24 10:35:58.652959 , -21.9006946, -7.2234891, -22.0825182, 0.2077026, -0.3189087, 1.0051270, -0.4573171, 7.0426829, 49.5121951, -181.3750000, -169.5000000, -38.1250000
2021-10-24 10:35:58.899653 , -21.2488606, -6.8565735, -24.8284834, 0.2086182, -0.3187256, 1.0061035, -0.6097561, 7.2256098, 49.4512195, -164.1250000, -157.1250000, -42.1250000
2021-10-24 10:35:59.146226 , -20.6790882, -6.5529324, -26.8014712, 0.2087402, -0.3211670, 1.0058594, -0.5487805, 7.0731707, 49.4817073, -158.1250000, -144.8750000, -42.3750000
2021-10-24 10:35:59.392651 , -20.2792259, -6.3877765, -28.1444764, 0.2088623, -0.3208008, 1.0076904, -0.4268293, 7.0426829, 49.4207317, -160.3750000, -144.7500000, -36.2500000
2021-10-24 10:35:59.639215 , -20.0282614, -6.3317234, -29.5646063, 0.2092285, -0.3195801, 1.0068970, -0.5182927, 7.0731707, 49.4512195, -148.1250000, -144.7500000, -31.1250000
2021-10-24 10:35:59.885136 , -19.5876460, -6.2230530, -30.6472201, 0.2101440, -0.3204956, 1.0093384, -0.1524390, 4.8475610, 49.8475610, -145.5000000, -134.6250000, -46.3750000
2021-10-24 10:36:00.130711 , -19.3670161, -6.2037147, -31.4584502, 0.2163696, -0.3234253, 1.0033569, -1.0365854, 6.0975610, 49.8170732, -141.7500000, -131.2500000, -42.6250000
2021-10-24 10:36:00.376175 , -19.1142632, -6.0941459, -32.0915979, 0.2124634, -0.3208618, 1.0061646, -0.4573171, 7.2256098, 49.4817073, -142.5000000, -130.6250000, -43.7500000
2021-10-24 10:36:00.634277 , -18.9439597, -6.0492169, -32.7033328, 0.2129517, -0.3211060, 1.0056763, -0.4573171, 7.1036585, 49.4512195, -140.2500000, -132.2500000, -41.6250000
2021-10-24 10:36:00.889580 , -18.8355866, -6.0558099, -33.2875983, 0.2142334, -0.3203125, 1.0049438, -0.4878049, 7.1951220, 49.4817073, -143.1250000, -138.6250000, -40.5000000
2021-10-24 10:36:01.144721 , -18.7722729, -6.0463074, -33.7053803, 0.2124023, -0.3217773, 1.0054321, -0.5792683, 7.1646341, 49.4207317, -136.2500000, -131.1250000, -38.2500000
2021-10-24 10:36:01.391184 , -18.7183907, -6.0430934, -33.9507522, 0.2131348, -0.3215332, 1.0049438, -0.7317073, 7.1341463, 49.4512195, -140.0000000, -132.3750000, -40.1250000
2021-10-24 10:36:01.646244 , -18.6642292, -6.0410648, -34.0914115, 0.2132568, -0.3219604, 1.0055542, -0.3963415, 7.1951220, 49.4512195, -141.8750000, -133.0000000, -40.3750000
2021-10-24 10:36:01.891496 , -18.6205553, -6.0372022, -34.2663474, 0.2123413, -0.3214722, 1.0053101, -0.4573171, 7.0731707, 49.4512195, -140.5000000, -133.2500000, -40.2500000
2021-10-24 10:36:02.185532 , -18.5615741, -6.0487990, -34.4621023, 0.2145996, -0.3203735, 1.0057983, -0.4573171, 7.1341463, 49.4512195, -138.7500000, -132.3750000, -41.1250000
2021-10-24 10:36:02.432444 , -18.5187358, -6.0410857, -34.6459185, 0.2130737, -0.3208008, 1.0046997, -0.4573171, 7.1036585, 49.4512195, -141.2500000, -135.2500000, -42.6250000
2021-10-24 10:36:02.687558 , -18.5051496, -6.0421659, -34.8473333, 0.2130737, -0.3212280, 1.0046387, -0.5487805, 7.1646341, 49.4512195, -139.2500000, -135.1250000, -41.2500000
2021-10-24 10:36:02.933242 , -18.4887130, -6.0560708, -34.8886847, 0.2135620, -0.3203735, 1.0050659, -0.5182927, 7.1341463, 49.4512195, -137.0000000, -130.5000000, -39.6250000
2021-10-24 10:36:03.177240 , -18.4469262, -6.0269962, -34.9634944, 0.2131958, -0.3218384, 1.0043335, -0.4573171, 7.1341463, 49.3902439, -141.7500000, -133.8750000, -46.0000000
2021-10-24 10:36:03.423607 , -18.4025316, -5.9809382, -34.9924157, 0.2113647, -0.3212280, 1.0053711, -0.4878049, 7.1341463, 49.4512195, -139.5000000, -131.0000000, -45.5000000
2021-10-24 10:36:03.670043 , -18.4124541, -5.9944973, -35.0430558, 0.2121582, -0.3211060, 1.0046997, -0.4878049, 7.1646341, 49.3902439, -139.7500000, -134.0000000, -40.7500000
2021-10-24 10:36:03.916767 , -18.4216911, -6.0116749, -35.0159303, 0.2125854, -0.3209839, 1.0051270, -0.4878049, 7.1646341, 49.4207317, -142.2500000, -135.0000000, -40.8750000
2021-10-24 10:36:04.163318 , -18.4238322, -6.0182700, -34.9252867, 0.2125244, -0.3211060, 1.0052490, -0.4878049, 7.1341463, 49.5121951, -142.5000000, -133.3750000, -41.5000000
2021-10-24 10:36:04.409524 , -18.4306712, -6.0158178, -35.0614808, 0.2127686, -0.3218384, 1.0058594, -0.6402439, 7.1646341, 49.4512195, -138.8750000, -134.3750000, -41.8750000
2021-10-24 10:36:04.655885 , -18.3939504, -6.0209397, -35.0649662, 0.2136230, -0.3195190, 1.0050049, -0.4268293, 7.1646341, 49.3902439, -142.8750000, -135.1250000, -43.8750000
2021-10-24 10:36:04.903393 , -18.3842798, -6.0219771, -35.1427008, 0.2127075, -0.3208008, 1.0049438, -0.7012195, 6.8597561, 49.3292683, -137.7500000, -131.7500000, -43.3750000
2021-10-24 10:36:05.149839 , -18.3960978, -6.0481962, -35.0697068, 0.2149048, -0.3222046, 1.0050049, -0.5792683, 6.9817073, 49.4512195, -138.6250000, -130.0000000, -42.3750000
2021-10-24 10:36:05.396183 , -18.4514992, -6.1306903, -35.3079559, 0.2166748, -0.3201294, 0.9998779, -0.9146341, 6.9817073, 49.2987805, -133.6250000, -133.3750000, -38.2500000
2021-10-24 10:36:05.642637 , -16.9689418, -1.9724152, -34.6680812, 0.2119141, -0.3202515, 1.0064697, -0.6097561, 7.2560976, 49.3597561, -147.6250000, -102.8750000, -8207.8750000
2021-10-24 10:36:05.889109 , -22.2840843, -0.0775013, -23.2713779, 0.2116089, -0.3208618, 1.0063477, -0.5487805, 7.1951220, 49.4512195, -169.8750000, 16401.8750000, 24.6250000
2021-10-24 10:36:06.135533 , -22.6256302, -0.8615542, -9.0751795, 0.2106323, -0.3223267, 1.0087280, -0.5182927, 6.8597561, 49.4512195, -73.5000000, 131.0000000, 41.1250000
2021-10-24 10:36:06.381985 , -21.2159612, -3.0109266, 0.7019557, 0.2115479, -0.3213501, 1.0062256, -0.5487805, 7.1646341, 49.3902439, 149.5000000, 149.7500000, 73.1250000
2021-10-24 10:36:06.632040 , -24.6377208, -7.9773721, -7.7474076, 0.2128906, -0.3208618, 1.0059814, -0.5487805, 7.1341463, 49.4512195, 328.5000000, -8267.2500000, 42.3750000
2021-10-24 10:36:06.878319 , -27.5067899, -15.9221342, -13.3168439, 0.2128296, -0.3204956, 1.0062866, -0.5182927, 7.1646341, 49.4207317, 150.1250000, -275.7500000, 47.2500000
2021-10-24 10:36:07.125058 , -26.4852520, -13.6532854, -9.4006913, 0.2134399, -0.3208008, 1.0065308, -0.4573171, 7.1646341, 49.4817073, -8248.8750000, -316.8750000, 83.7500000
2021-10-24 10:36:07.371594 , -19.4238202, -14.6394293, -6.4686531, 0.2128296, -0.3206177, 1.0067139, -0.3353659, 7.2256098, 49.4512195, -238.5000000, -208.5000000, 16415.8750000
2021-10-24 10:36:07.618061 , -19.7523486, -12.7635450, -13.1814132, 0.2107544, -0.3211060, 1.0062866, -0.3658537, 7.2560976, 49.4817073, -162.8750000, -213.2500000, -29.6250000
2021-10-24 10:36:07.864731 , -20.2276930, -11.5605102, -19.8626048, 0.2129517, -0.3190308, 1.0068359, -0.4268293, 7.1646341, 49.4512195, -99.3750000, -167.7500000, -26.6250000
2021-10-24 10:36:08.111293 , -20.0492421, -10.2154234, -26.1590529, 0.2115479, -0.3194580, 1.0075073, -0.4878049, 7.2256098, 49.3902439, -87.2500000, -156.6250000, -42.8750000
2021-10-24 10:36:08.357074 , -19.9637501, -9.2903769, -31.3078965, 0.2111816, -0.3197021, 1.0067139, -0.3963415, 7.1951220, 49.4207317, -89.2500000, -160.5000000, -41.7500000
2021-10-24 10:36:08.603543 , -19.8216131, -8.5004059, -35.7233390, 0.2098389, -0.3203125, 1.0070190, -0.3353659, 7.6829268, 49.5731707, -84.7500000, -158.2500000, -44.3750000
2021-10-24 10:36:08.850099 , -19.6731450, -7.8393170, -39.0745586, 0.2066040, -0.3192139, 1.0067749, -0.7621951, 8.0182927, 49.3902439, -87.5000000, -155.3750000, -44.2500000
2021-10-24 10:36:09.095524 , -19.6081893, -7.3875999, -41.6186421, 0.2044067, -0.3214722, 1.0076294, -0.9451220, 7.3780488, 49.4817073, -88.3750000, -155.0000000, -41.7500000
2021-10-24 10:36:09.341621 , -19.5768107, -7.0789845, -43.6676809, 0.2023315, -0.3231812, 1.0090942, -0.5487805, 7.1951220, 49.3292683, -88.6250000, -158.1250000, -39.7500000
2021-10-24 10:36:09.588002 , -19.4857805, -6.7986034, -45.1252283, 0.2035522, -0.3225708, 1.0067139, -0.3963415, 7.1951220, 49.4207317, -90.7500000, -154.8750000, -42.1250000
2021-10-24 10:36:09.834626 , -19.3591222, -6.5858871, -46.4649073, 0.2042847, -0.3195190, 1.0075073, -0.4573171, 7.1036585, 49.2682927, -88.0000000, -154.8750000, -43.5000000
2021-10-24 10:36:10.081171 , -19.3002949, -6.4469443, -47.8192065, 0.2041016, -0.3217773, 1.0069580, -0.7621951, 6.7378049, 49.2682927, -84.7500000, -158.7500000, -44.6250000
2021-10-24 10:36:10.327529 , -19.2682263, -6.3998311, -48.7045779, 0.2071533, -0.3227539, 1.0061035, -0.0914634, 7.3475610, 49.4817073, -84.6250000, -155.3750000, -39.1250000
2021-10-24 10:36:10.574706 , -19.1996175, -6.2836146, -49.3974623, 0.2048950, -0.3217163, 1.0072632, -0.3963415, 7.2865854, 49.4207317, -86.6250000, -156.3750000, -43.6250000
2021-10-24 10:36:10.822235 , -19.1479230, -6.2230006, -49.9483870, 0.2033081, -0.3195190, 1.0066528, -0.3353659, 7.3170732, 49.5121951, -87.0000000, -159.5000000, -40.5000000
2021-10-24 10:36:11.068667 , -19.1119634, -6.1111185, -50.2017895, 0.2016602, -0.3229370, 1.0083618, -0.4573171, 7.3170732, 49.3902439, -89.1250000, -155.8750000, -42.7500000
2021-10-24 10:36:11.314583 , -19.1472525, -6.1139345, -50.4868382, 0.2061768, -0.3234253, 1.0064697, -1.2804878, 7.1341463, 49.2378049, -88.1250000, -157.7500000, -41.2500000
2021-10-24 10:36:11.560762 , -19.0747148, -6.0607028, -50.7598292, 0.2054443, -0.3221436, 1.0079956, 0.0304878, 7.4390244, 49.4512195, -87.6250000, -157.0000000, -43.7500000
2021-10-24 10:36:11.806114 , -19.0862982, -6.0472203, -50.7631311, 0.2049561, -0.3253174, 1.0074463, -0.2134146, 7.3780488, 49.5426829, -88.3750000, -154.2500000, -39.1250000
