
Sense HAT Test Program ...

Raspberry UTC Start2021-10-24 10:38:35.053102
UTC Current Time, roll, Pitch, Yaw, AccX, AccY, AccZ, GyroX, GyroY, GyroZ, MagX, MagY, MagZ
2021-10-24 10:38:35.269478 , -2.1949202, -4.8455154, -174.4417072, -0.0056763, -0.2700195, 1.0166016, -0.4573171, -0.2134146, -0.1524390, -284.7500000, -149.2500000, -73.6250000
2021-10-24 10:38:35.475189 , -3.9308145, -9.9600372, -167.8519502, -0.0046997, -0.2691650, 1.0226440, -0.4268293, -0.3963415, 0.0000000, -284.0000000, -147.5000000, -75.3750000
2021-10-24 10:38:35.689852 , -5.5591167, -15.0673521, -160.3146977, -0.0063477, -0.2727661, 1.0219727, -0.3963415, -0.1219512, 0.0304878, -286.2500000, -147.5000000, -76.0000000
2021-10-24 10:38:35.904801 , -7.2511853, -19.8510325, -151.9001289, -0.0033569, -0.2719727, 1.0208130, -0.4268293, 0.1219512, 0.1219512, -287.0000000, -147.6250000, -73.6250000
2021-10-24 10:38:36.129841 , -9.0909513, -24.1700231, -142.8172706, -0.0030518, -0.2739868, 1.0214844, -0.3353659, -0.1219512, 0.0000000, -282.8750000, -148.7500000, -76.1250000
2021-10-24 10:38:36.344690 , -11.2362509, -27.6065002, -133.2748807, -0.0031128, -0.2762451, 1.0192871, -0.3353659, 0.3048780, 0.0609756, -285.3750000, -146.8750000, -74.5000000
2021-10-24 10:38:36.568080 , -13.4309103, -29.9983819, -123.5315296, -0.0034180, -0.2727051, 1.0206909, 0.0304878, -0.1219512, 0.0000000, -286.6250000, -148.8750000, -75.3750000
2021-10-24 10:38:36.771440 , -15.7369079, -31.3420770, -113.8769367, -0.0045776, -0.2750244, 1.0186157, -0.2743902, -0.2134146, -0.0304878, -287.0000000, -146.0000000, -77.7500000
2021-10-24 10:38:36.977492 , -17.8699101, -31.5656690, -104.3790755, -0.0034180, -0.2721558, 1.0208130, -0.1829268, 0.3963415, 0.1219512, -288.0000000, -145.0000000, -74.5000000
2021-10-24 10:38:37.183943 , -19.6416715, -30.7811373, -95.3229923, -0.0040283, -0.2714844, 1.0195312, -0.5487805, -0.1829268, 0.2134146, -285.1250000, -147.7500000, -75.3750000
2021-10-24 10:38:37.389522 , -21.1606225, -29.2867014, -86.8382290, -0.0007324, -0.2793579, 1.0183105, -1.0670732, -0.8841463, 0.0304878, -287.3750000, -148.3750000, -78.6250000
2021-10-24 10:38:37.596065 , -22.1441626, -27.0906710, -78.9979624, 0.0001831, -0.2789307, 1.0216675, -1.2195122, -0.1829268, 0.3048780, -286.6250000, -151.2500000, -76.6250000
2021-10-24 10:38:37.801977 , -22.7539994, -24.5558376, -71.8110940, -0.0002441, -0.2799683, 1.0217896, -1.0060976, -0.5487805, 0.4878049, -285.2500000, -146.8750000, -76.1250000
2021-10-24 10:38:38.007655 , -22.8810263, -21.7574258, -65.4508540, -0.0003662, -0.2816162, 1.0203857, -0.3658537, -0.3048780, 0.0914634, -284.5000000, -149.7500000, -76.5000000
2021-10-24 10:38:38.214406 , -22.7338375, -18.9469161, -59.8127758, 0.0028687, -0.2850952, 1.0215454, -0.6402439, -0.3048780, 0.3048780, -284.7500000, -150.6250000, -76.3750000
2021-10-24 10:38:38.420570 , -22.2810297, -16.2166860, -54.8453769, 0.0020142, -0.2817993, 1.0215454, -0.3048780, -0.0304878, -0.0304878, -285.6250000, -150.3750000, -73.3750000
2021-10-24 10:38:38.626497 , -21.7592635, -13.7310249, -50.5451037, 0.0017090, -0.2831421, 1.0212402, -0.5487805, -0.2134146, 0.0609756, -284.0000000, -146.6250000, -75.7500000
2021-10-24 10:38:38.833086 , -21.0646968, -11.4780120, -46.9359398, 0.0026245, -0.2816162, 1.0232544, -0.2439024, -0.2439024, -0.0304878, -283.8750000, -149.8750000, -73.8750000
2021-10-24 10:38:39.038856 , -20.4022821, -9.5325225, -43.7576091, 0.0031128, -0.2830200, 1.0216675, -0.0914634, -0.2134146, -0.0304878, -284.8750000, -146.5000000, -72.5000000
2021-10-24 10:38:39.245053 , -19.7107641, -7.8454778, -41.3186683, 0.0024414, -0.2807007, 1.0212402, 0.0000000, -0.1219512, 0.0000000, -283.1250000, -149.7500000, -78.0000000
2021-10-24 10:38:39.451157 , -19.0880353, -6.3910513, -39.1944465, 0.0012817, -0.2822876, 1.0224609, -0.3963415, 0.0000000, 0.0304878, -283.8750000, -150.3750000, -71.5000000
2021-10-24 10:38:39.656817 , -18.5036525, -5.2083128, -37.5061017, 0.0022583, -0.2807007, 1.0208130, -0.0914634, -0.2134146, -0.0609756, -287.6250000, -153.2500000, -74.8750000
2021-10-24 10:38:39.863207 , -18.0090216, -4.2370709, -36.1803501, 0.0023804, -0.2816162, 1.0219116, -0.0609756, -0.0914634, 0.0304878, -281.8750000, -150.1250000, -78.3750000
2021-10-24 10:38:40.068805 , -17.6271186, -3.4237554, -35.0143533, 0.0013428, -0.2841797, 1.0199585, -0.1829268, 0.1219512, 0.0609756, -283.0000000, -149.1250000, -76.1250000
2021-10-24 10:38:40.274980 , -17.2754193, -2.7981136, -33.9965214, 0.0028076, -0.2819214, 1.0208740, -0.2134146, -0.1524390, -0.1219512, -281.5000000, -146.5000000, -74.0000000
2021-10-24 10:38:40.481391 , -16.9417530, -2.2841262, -33.1971419, 0.0037231, -0.2789917, 1.0236816, -0.4878049, 0.0914634, 0.0304878, -286.0000000, -149.8750000, -74.6250000
2021-10-24 10:38:40.686764 , -16.6906647, -1.8691555, -32.5834379, 0.0022583, -0.2822266, 1.0217285, -0.2439024, -0.3048780, -0.0304878, -282.7500000, -149.0000000, -74.8750000
2021-10-24 10:38:40.893191 , -16.4686551, -1.4947495, -32.1834144, 0.0005493, -0.2809448, 1.0215454, -0.4878049, 0.0304878, -0.0914634, -280.0000000, -150.2500000, -74.5000000
2021-10-24 10:38:41.098744 , -16.2730226, -1.2299593, -31.7703256, 0.0034180, -0.2811279, 1.0230713, -0.0914634, 0.0914634, 0.0304878, -285.5000000, -150.7500000, -75.1250000
2021-10-24 10:38:41.304947 , -16.1228196, -0.9832540, -31.3339867, -0.0004272, -0.2798462, 1.0225220, -0.3963415, 0.0000000, -0.0609756, -285.0000000, -147.5000000, -73.5000000
2021-10-24 10:38:41.511232 , -15.9878700, -0.8278317, -31.1150612, 0.0036621, -0.2812500, 1.0217285, -0.0914634, -0.0914634, 0.0609756, -283.3750000, -150.7500000, -74.1250000
2021-10-24 10:38:41.716992 , -15.8775899, -0.7029643, -30.8681566, 0.0035400, -0.2801514, 1.0236816, -0.2743902, 0.0609756, -0.1219512, -284.2500000, -148.0000000, -76.3750000
2021-10-24 10:38:41.923654 , -15.8012217, -0.5835694, -30.6616409, 0.0014038, -0.2810669, 1.0222168, -0.2743902, -0.1219512, 0.0304878, -284.8750000, -148.3750000, -76.5000000
2021-10-24 10:38:42.129438 , -15.7110432, -0.5008105, -30.5100692, 0.0010986, -0.2783203, 1.0194092, -0.2439024, -0.4878049, -0.0609756, -285.8750000, -150.1250000, -74.1250000
2021-10-24 10:38:42.335753 , -15.6498004, -0.4298218, -30.3774227, 0.0022583, -0.2793579, 1.0227051, -0.4268293, -0.0914634, 0.0000000, -286.0000000, -149.3750000, -75.5000000
2021-10-24 10:38:42.541832 , -15.6420761, -0.3737345, -30.2939480, 0.0015869, -0.2824707, 1.0197144, -0.4268293, -0.3048780, 0.0000000, -283.2500000, -148.1250000, -77.0000000
2021-10-24 10:38:42.746814 , -15.6209359, -0.3548845, -30.1249870, 0.0048218, -0.2818604, 1.0237427, -0.3658537, 0.0609756, 0.0000000, -285.1250000, -146.7500000, -73.7500000
2021-10-24 10:38:42.953181 , -15.6743006, -0.2881346, -29.9819908, 0.0006714, -0.2849121, 1.0191650, -0.8536585, 0.0609756, 0.1524390, -284.3750000, -145.8750000, -75.0000000
2021-10-24 10:38:43.158799 , -15.5627999, -0.2753327, -30.0229515, 0.0034180, -0.2763062, 1.0228271, -0.2743902, -0.2743902, 0.0609756, -285.2500000, -151.3750000, -74.6250000
2021-10-24 10:38:43.365100 , -15.5103569, -0.2661649, -30.0867449, 0.0031738, -0.2795410, 1.0218506, -0.2134146, -0.3353659, -0.0914634, -284.8750000, -151.3750000, -77.0000000
2021-10-24 10:38:43.571482 , -15.4995583, -0.2143150, -30.0644816, 0.0004883, -0.2803955, 1.0219116, -0.4878049, 0.0000000, 0.0609756, -282.2500000, -148.3750000, -74.2500000
2021-10-24 10:38:43.776844 , -15.4736404, -0.2063629, -29.9651335, 0.0017090, -0.2792969, 1.0227051, -0.2743902, -0.2743902, -0.0304878, -284.2500000, -146.1250000, -77.2500000
2021-10-24 10:38:43.983072 , -15.4641648, -0.1987036, -30.0229849, 0.0031738, -0.2815552, 1.0213623, -0.1829268, -0.0609756, 0.0000000, -282.2500000, -150.0000000, -74.5000000
2021-10-24 10:38:44.188563 , -15.4560686, -0.2023740, -30.0683942, 0.0032349, -0.2804565, 1.0220947, -0.4573171, -0.2439024, 0.0000000, -285.3750000, -151.6250000, -75.7500000
2021-10-24 10:38:44.394682 , -15.4656975, -0.1723663, -29.9343053, 0.0014648, -0.2807007, 1.0222168, -0.3963415, 0.2134146, 0.0304878, -283.1250000, -145.1250000, -74.3750000
2021-10-24 10:38:44.601152 , -15.4357980, -0.1472406, -30.1197776, 0.0011597, -0.2807007, 1.0214233, -0.1829268, -0.1829268, -0.0304878, -284.3750000, -154.0000000, -78.8750000
2021-10-24 10:38:44.807043 , -15.4238987, -0.1794034, -30.1653284, 0.0039062, -0.2796021, 1.0222778, -0.4573171, -0.4268293, -0.0609756, -283.0000000, -151.5000000, -73.5000000
2021-10-24 10:38:45.013567 , -15.4042560, -0.1893594, -30.0882221, 0.0034790, -0.2782593, 1.0241699, -0.4573171, -0.0914634, 0.0000000, -285.6250000, -149.0000000, -75.0000000
2021-10-24 10:38:45.219470 , -15.4169314, -0.1873695, -30.0665171, 0.0026855, -0.2817383, 1.0220337, -0.1829268, -0.1219512, -0.0609756, -283.7500000, -149.1250000, -74.7500000
2021-10-24 10:38:45.426121 , -15.4118399, -0.1733283, -30.0409358, 0.0021973, -0.2802124, 1.0232544, -0.3048780, 0.0000000, 0.0304878, -287.8750000, -150.8750000, -76.6250000
2021-10-24 10:38:45.631875 , -15.4239198, -0.1568648, -30.0392682, 0.0012817, -0.2811890, 1.0217896, -0.3658537, -0.1524390, 0.0609756, -280.6250000, -147.3750000, -76.1250000
2021-10-24 10:38:45.837299 , -15.4089343, -0.1820312, -30.0416992, 0.0039062, -0.2791138, 1.0220947, -0.3658537, -0.2743902, -0.0609756, -283.7500000, -149.3750000, -75.6250000
2021-10-24 10:38:46.044007 , -15.4215754, -0.1980449, -30.0189431, 0.0039673, -0.2811890, 1.0239868, -0.4573171, -0.1524390, -0.0609756, -285.7500000, -149.8750000, -75.1250000
2021-10-24 10:38:46.249823 , -15.4538632, -0.2003025, -29.9084510, 0.0039673, -0.2821045, 1.0228271, -0.4878049, 0.1219512, 0.0609756, -288.1250000, -149.0000000, -72.8750000
2021-10-24 10:38:46.456253 , -15.4436362, -0.2197462, -29.8770479, 0.0042725, -0.2796631, 1.0213623, -0.3658537, -0.2439024, 0.0000000, -285.6250000, -148.8750000, -74.5000000
2021-10-24 10:38:46.661989 , -15.4508031, -0.2458302, -29.8466582, 0.0057373, -0.2822876, 1.0242310, -0.2439024, -0.0914634, -0.0609756, -287.1250000, -149.5000000, -74.2500000
2021-10-24 10:38:46.888101 , -15.4665932, -0.2098203, -29.8763279, 0.0021973, -0.2821045, 1.0214844, -0.4268293, 0.1524390, 0.0000000, -284.6250000, -149.8750000, -73.6250000
2021-10-24 10:38:47.094373 , -15.4582983, -0.1728680, -29.9675650, 0.0011597, -0.2820435, 1.0223389, -0.1829268, 0.0000000, 0.0304878, -280.5000000, -149.6250000, -73.7500000
2021-10-24 10:38:47.309238 , -15.4640607, -0.1834465, -29.9153589, 0.0021362, -0.2806396, 1.0228882, -0.5487805, -0.4268293, -0.0609756, -281.7500000, -146.6250000, -73.3750000
2021-10-24 10:38:47.514868 , -15.4984753, -0.2025599, -29.8916287, 0.0029907, -0.2838745, 1.0238037, -0.5182927, -0.4573171, -0.1219512, -281.2500000, -147.0000000, -72.6250000
2021-10-24 10:38:47.729376 , -15.5217668, -0.2066929, -29.8990112, 0.0043335, -0.2831421, 1.0228271, -0.6097561, 0.0304878, 0.0609756, -282.7500000, -148.3750000, -74.0000000
2021-10-24 10:38:47.935431 , -15.5268795, -0.1959440, -30.0041285, 0.0035400, -0.2828979, 1.0216675, -0.4878049, 0.0304878, 0.0609756, -283.1250000, -151.7500000, -74.0000000
2021-10-24 10:38:48.150207 , -15.5534688, -0.1998345, -29.8587003, 0.0029297, -0.2833862, 1.0213623, -0.3658537, -0.0914634, -0.0304878, -283.8750000, -144.8750000, -74.0000000
2021-10-24 10:38:48.365553 , -15.5387665, -0.2466505, -29.8743585, 0.0065308, -0.2818604, 1.0230103, -0.3963415, -0.3048780, -0.0304878, -283.7500000, -148.8750000, -74.3750000
2021-10-24 10:38:48.571645 , -15.5523915, -0.2130528, -29.9105574, 0.0024414, -0.2838135, 1.0224609, -0.4573171, 0.1219512, 0.0914634, -281.3750000, -148.8750000, -72.0000000
2021-10-24 10:38:48.825007 , -15.5615264, -0.2014990, -29.9828410, 0.0028687, -0.2848511, 1.0205688, -0.1219512, -0.0914634, -0.0304878, -282.5000000, -150.1250000, -74.6250000
2021-10-24 10:38:49.049473 , -15.5320176, -0.2330539, -30.0285856, 0.0051880, -0.2814331, 1.0230103, -0.2743902, -0.3353659, -0.0914634, -281.7500000, -149.5000000, -74.0000000
2021-10-24 10:38:49.264916 , -15.5651692, -0.2398776, -30.0508005, 0.0050659, -0.2850342, 1.0223999, -0.5182927, 0.0000000, 0.0609756, -282.0000000, -149.8750000, -72.0000000
2021-10-24 10:38:49.477006 , -15.5882219, -0.2278433, -30.0300208, 0.0028076, -0.2846680, 1.0213623, -0.3963415, -0.1219512, -0.0304878, -279.5000000, -146.5000000, -74.0000000
2021-10-24 10:38:49.679145 , -15.5752617, -0.2475638, -30.0586651, 0.0043945, -0.2832642, 1.0209961, -0.1524390, -0.3963415, -0.0609756, -282.5000000, -149.5000000, -75.0000000
2021-10-24 10:38:49.880980 , -15.5694852, -0.2562038, -29.9893839, 0.0047607, -0.2825928, 1.0230713, -0.3658537, -0.0914634, 0.0609756, -286.7500000, -149.6250000, -73.3750000
2021-10-24 10:38:50.084754 , -15.5680219, -0.2457015, -30.0868883, 0.0039673, -0.2838745, 1.0189819, -0.1524390, -0.0914634, 0.0609756, -281.8750000, -151.3750000, -74.0000000
2021-10-24 10:38:50.291005 , -15.6094004, -0.2391407, -30.0511854, 0.0032959, -0.2855835, 1.0213013, -0.5487805, -0.1219512, -0.0609756, -285.3750000, -150.3750000, -71.7500000
2021-10-24 10:38:50.496992 , -15.6448120, -0.2402010, -29.9066428, 0.0039673, -0.2856445, 1.0203857, -0.3353659, 0.0000000, 0.0609756, -283.3750000, -145.0000000, -73.8750000
2021-10-24 10:38:50.702574 , -15.6741568, -0.2163778, -29.9689053, 0.0032349, -0.2863770, 1.0196533, -0.5182927, 0.1524390, -0.0304878, -283.7500000, -150.1250000, -75.5000000
2021-10-24 10:38:50.908833 , -15.6829966, -0.2156339, -30.0081694, 0.0028687, -0.2852783, 1.0193481, -0.4268293, -0.3048780, -0.0304878, -281.8750000, -149.5000000, -73.2500000
2021-10-24 10:38:51.114492 , -15.6890622, -0.2081741, -29.9500660, 0.0018311, -0.2834473, 1.0193481, -0.6707317, -0.3353659, 0.0304878, -285.0000000, -148.0000000, -75.5000000
2021-10-24 10:38:51.319790 , -15.6802368, -0.2116074, -29.9151046, 0.0042725, -0.2847290, 1.0221558, -0.3048780, 0.0609756, 0.0304878, -285.8750000, -148.6250000, -75.7500000
2021-10-24 10:38:51.525104 , -15.6467473, -0.2184898, -29.8907684, 0.0023804, -0.2832642, 1.0212402, -0.0609756, -0.4878049, -0.0914634, -282.1250000, -147.2500000, -73.2500000
2021-10-24 10:38:51.731190 , -15.6456609, -0.2289081, -29.8850941, 0.0043945, -0.2847290, 1.0219116, -0.3048780, -0.0914634, -0.1219512, -285.5000000, -149.2500000, -74.1250000
2021-10-24 10:38:51.937565 , -15.6325628, -0.2167248, -29.8042711, 0.0029907, -0.2835083, 1.0206909, -0.1219512, 0.0304878, 0.0304878, -284.1250000, -145.7500000, -75.6250000
2021-10-24 10:38:52.142996 , -15.6502987, -0.2401178, -29.6712203, 0.0040894, -0.2843628, 1.0198975, -0.3658537, -0.3353659, -0.0304878, -287.7500000, -146.1250000, -74.2500000
2021-10-24 10:38:52.349131 , -15.6691632, -0.2298496, -29.7174303, 0.0030518, -0.2859497, 1.0199585, -0.4268293, -0.1829268, 0.0000000, -281.8750000, -147.3750000, -74.3750000
2021-10-24 10:38:52.554165 , -15.6907763, -0.2239755, -29.7173982, 0.0037842, -0.2858276, 1.0185547, -0.4268293, -0.0304878, 0.1219512, -289.0000000, -150.2500000, -75.5000000
2021-10-24 10:38:52.759517 , -15.6677957, -0.2441174, -29.7494116, 0.0047607, -0.2834473, 1.0195312, -0.2743902, -0.3048780, -0.0304878, -284.2500000, -148.5000000, -74.8750000
2021-10-24 10:38:52.964742 , -15.6295522, -0.2327001, -29.8596865, 0.0026855, -0.2821655, 1.0206909, -0.3658537, -0.3353659, 0.0000000, -285.8750000, -152.3750000, -74.5000000
2021-10-24 10:38:53.170280 , -15.6238184, -0.2332836, -29.8929943, 0.0042114, -0.2836914, 1.0209961, -0.3963415, -0.0914634, 0.0609756, -284.7500000, -150.2500000, -73.6250000
2021-10-24 10:38:53.376239 , -15.6217946, -0.2377240, -29.8937874, 0.0021973, -0.2839355, 1.0177612, -0.1219512, -0.6097561, -0.0914634, -283.0000000, -148.0000000, -75.0000000
2021-10-24 10:38:53.581653 , -15.6303384, -0.2708590, -29.8094956, 0.0062256, -0.2835693, 1.0198364, -0.3963415, -0.1524390, -0.0304878, -285.3750000, -147.0000000, -73.6250000
2021-10-24 10:38:53.787623 , -15.6175295, -0.2329402, -29.8731554, 0.0025024, -0.2850342, 1.0206909, 0.0304878, 0.1219512, -0.0304878, -281.0000000, -147.7500000, -75.8750000
2021-10-24 10:38:53.993338 , -15.6094419, -0.2214377, -29.7791061, 0.0021362, -0.2824707, 1.0203857, -0.3048780, -0.1829268, -0.0609756, -285.2500000, -146.3750000, -73.8750000
2021-10-24 10:38:54.199665 , -15.5918915, -0.2472306, -29.8823883, 0.0059814, -0.2830811, 1.0213623, -0.3658537, -0.1829268, -0.0609756, -282.3750000, -149.2500000, -77.6250000
2021-10-24 10:38:54.404835 , -15.6249931, -0.2379855, -29.8457095, 0.0040283, -0.2854004, 1.0212402, -0.5182927, 0.0914634, 0.0304878, -286.2500000, -148.7500000, -74.3750000
2021-10-24 10:38:54.610879 , -15.6178405, -0.2267932, -29.8718312, 0.0029297, -0.2842407, 1.0206909, -0.1829268, -0.1524390, -0.0304878, -285.8750000, -149.7500000, -76.2500000
2021-10-24 10:38:54.816393 , -15.6183496, -0.2209646, -29.9102533, 0.0028687, -0.2850952, 1.0205688, -0.1219512, -0.2439024, -0.0304878, -285.0000000, -150.3750000, -74.3750000
2021-10-24 10:38:55.022008 , -15.6029124, -0.2297189, -29.9423640, 0.0045776, -0.2829590, 1.0213623, -0.3353659, -0.0914634, -0.0304878, -284.2500000, -149.5000000, -75.8750000
2021-10-24 10:38:55.228423 , -15.6115033, -0.2322561, -29.9924787, 0.0042114, -0.2849731, 1.0214844, -0.3353659, -0.1219512, 0.0000000, -283.0000000, -149.7500000, -75.3750000
2021-10-24 10:38:55.433655 , -15.6052146, -0.2572573, -29.9504325, 0.0054321, -0.2833862, 1.0208130, -0.2134146, -0.1829268, -0.0609756, -279.8750000, -144.8750000, -76.6250000
2021-10-24 10:38:55.639859 , -15.5958700, -0.2456187, -29.9599014, 0.0038452, -0.2835083, 1.0211792, -0.2134146, 0.0304878, -0.0609756, -286.2500000, -150.7500000, -73.7500000
2021-10-24 10:38:55.845437 , -15.5973467, -0.2325955, -29.9640453, 0.0030518, -0.2837524, 1.0201416, -0.2743902, -0.1219512, 0.0609756, -284.7500000, -150.0000000, -73.7500000
2021-10-24 10:38:56.051028 , -15.5885315, -0.2509821, -29.9579754, 0.0051270, -0.2831421, 1.0206299, -0.2134146, -0.1524390, -0.0914634, -285.0000000, -149.5000000, -74.2500000
2021-10-24 10:38:56.257198 , -15.5908537, -0.2535459, -29.9002995, 0.0046387, -0.2826538, 1.0201416, -0.3963415, 0.0000000, 0.0304878, -284.8750000, -147.5000000, -75.5000000
2021-10-24 10:38:56.462660 , -15.5994636, -0.2521093, -29.9445763, 0.0045166, -0.2843018, 1.0210571, -0.3963415, -0.0609756, 0.0000000, -283.2500000, -149.7500000, -74.1250000
2021-10-24 10:38:56.668899 , -15.5847469, -0.2507276, -29.9174065, 0.0041504, -0.2827759, 1.0216064, -0.2134146, -0.0609756, -0.0304878, -281.8750000, -146.8750000, -74.2500000
2021-10-24 10:38:56.874289 , -15.5899487, -0.2584713, -29.8965688, 0.0048828, -0.2833862, 1.0210571, -0.3963415, -0.0914634, 0.0304878, -283.5000000, -147.1250000, -77.2500000
2021-10-24 10:38:57.079855 , -15.5861470, -0.2598079, -29.8501558, 0.0043945, -0.2832031, 1.0214844, -0.2439024, -0.0609756, -0.0304878, -286.3750000, -147.3750000, -78.6250000
2021-10-24 10:38:57.285024 , -15.5670321, -0.2570803, -29.9025015, 0.0038452, -0.2820435, 1.0219116, -0.3963415, -0.2134146, -0.0914634, -285.0000000, -150.5000000, -74.6250000
2021-10-24 10:38:57.490237 , -15.5766816, -0.2666022, -29.8546245, 0.0047607, -0.2830200, 1.0217285, -0.4878049, -0.1524390, 0.0000000, -285.0000000, -147.5000000, -75.6250000
2021-10-24 10:38:57.696116 , -15.5745087, -0.2618979, -29.8698307, 0.0042725, -0.2827148, 1.0205078, -0.3963415, -0.0914634, 0.0304878, -282.1250000, -148.2500000, -72.8750000
2021-10-24 10:38:57.901640 , -15.5449538, -0.2594801, -29.9409079, 0.0043945, -0.2822876, 1.0216675, -0.0914634, -0.1219512, -0.0609756, -281.1250000, -148.8750000, -74.7500000
2021-10-24 10:38:58.107343 , -15.5402702, -0.2615001, -30.0031333, 0.0045776, -0.2827759, 1.0214844, -0.3353659, -0.1524390, -0.0609756, -280.8750000, -148.7500000, -75.5000000
2021-10-24 10:38:58.312884 , -15.5559101, -0.2670996, -30.0311092, 0.0050049, -0.2840576, 1.0217896, -0.3963415, -0.1219512, 0.0304878, -282.6250000, -149.3750000, -75.1250000
2021-10-24 10:38:58.519167 , -15.5657705, -0.2648061, -30.0526168, 0.0043335, -0.2836914, 1.0222778, -0.4573171, -0.1524390, 0.0609756, -281.0000000, -148.2500000, -75.7500000
2021-10-24 10:38:58.724506 , -15.5418423, -0.2732029, -30.0886882, 0.0048218, -0.2819214, 1.0214233, -0.1829268, -0.2439024, 0.0000000, -281.2500000, -149.1250000, -75.1250000
2021-10-24 10:38:58.930090 , -15.5580483, -0.2809450, -30.1024935, 0.0049438, -0.2836304, 1.0213013, -0.4573171, -0.2134146, 0.0000000, -283.7500000, -150.0000000, -75.7500000
2021-10-24 10:38:59.136151 , -15.5779507, -0.2549858, -30.0762945, 0.0029907, -0.2851562, 1.0206909, -0.1219512, 0.0609756, -0.0914634, -284.3750000, -149.2500000, -74.6250000
2021-10-24 10:38:59.341454 , -15.5678191, -0.2654688, -29.9629922, 0.0047607, -0.2821045, 1.0220947, -0.2439024, -0.0914634, 0.0000000, -286.0000000, -147.3750000, -74.8750000
2021-10-24 10:38:59.558285 , -15.5462567, -0.2761193, -29.9467357, 0.0055542, -0.2818604, 1.0222778, -0.2134146, -0.0609756, 0.0304878, -284.7500000, -149.3750000, -73.5000000
2021-10-24 10:38:59.795320 , -15.5279254, -0.2623496, -30.0885525, 0.0042725, -0.2814331, 1.0225220, -0.5792683, -0.0609756, -0.0304878, -283.8750000, -153.1250000, -75.6250000
2021-10-24 10:39:00.010057 , -15.5263370, -0.2539566, -29.9977929, 0.0024414, -0.2808838, 1.0230713, -0.6097561, -0.3353659, -0.0304878, -284.5000000, -148.5000000, -70.8750000
2021-10-24 10:39:00.225732 , -15.5329495, -0.2730795, -29.9566847, 0.0066528, -0.2833252, 1.0239258, -0.3353659, 0.0914634, 0.0914634, -284.8750000, -149.3750000, -72.0000000
2021-10-24 10:39:00.450054 , -15.5607389, -0.2746024, -29.9497196, 0.0043945, -0.2836914, 1.0207520, -0.5487805, -0.1219512, -0.2134146, -280.6250000, -146.5000000, -74.7500000
2021-10-24 10:39:00.685592 , -15.5358338, -0.2559582, -29.9237956, 0.0014038, -0.2821045, 1.0219116, 0.0000000, -0.4268293, -0.2439024, -285.1250000, -148.8750000, -73.7500000
2021-10-24 10:39:00.890494 , -15.5272140, -0.2610222, -29.7375424, 0.0040283, -0.2813721, 1.0216064, -0.0914634, -0.0609756, -0.0914634, -286.0000000, -144.5000000, -72.7500000
2021-10-24 10:39:01.115153 , -15.5279077, -0.2305364, -29.5720811, 0.0032349, -0.2829590, 1.0194702, 0.2134146, 0.3658537, 0.2134146, -283.8750000, -143.1250000, -72.1250000
2021-10-24 10:39:01.330846 , -15.3220163, -0.2129588, -29.5657415, 0.0040283, -0.2683716, 1.0220947, 0.6402439, 0.3963415, -0.1829268, -285.8750000, -146.8750000, -74.6250000
2021-10-24 10:39:01.565567 , -14.9466885, -0.1224616, -29.5596272, -0.0006104, -0.2625732, 1.0219727, 4.0853659, 2.0731707, -3.7804878, -293.7500000, -145.0000000, -76.3750000
2021-10-24 10:39:01.771296 , -14.3641020, 0.0876872, -29.5038036, -0.0101929, -0.2397461, 1.0185547, 4.9390244, 2.4390244, -3.0182927, -295.5000000, -144.5000000, -80.5000000
2021-10-24 10:39:02.025086 , -13.4997014, 0.3319726, -29.6639086, -0.0184326, -0.2109375, 1.0250244, 6.0060976, 2.6219512, -5.7317073, -296.0000000, -145.8750000, -88.0000000
2021-10-24 10:39:02.249699 , -13.1225376, 0.5008672, -29.4304598, -0.0201416, -0.2069702, 1.0194702, -0.7317073, 0.1829268, 0.5792683, -299.8750000, -147.5000000, -89.3750000
2021-10-24 10:39:02.455689 , -13.2677817, 0.5830531, -28.8810595, -0.0178833, -0.2254028, 1.0115356, -4.4512195, -0.4573171, 2.4695122, -299.2500000, -139.7500000, -85.1250000
2021-10-24 10:39:02.661147 , -14.4726887, 0.9169960, -27.5055568, -0.0762329, -0.3750000, 1.0401611, 5.5792683, -11.0365854, 14.2987805, -300.6250000, -132.0000000, -80.8750000
2021-10-24 10:39:02.866955 , -12.9117962, 0.2600519, -27.4565773, -0.0291748, -0.2487183, 1.0366211, 28.5670732, -15.0609756, -6.8902439, -298.2500000, -133.2500000, -81.8750000
2021-10-24 10:39:03.073111 , -12.9307149, 0.4302201, -27.5283949, -0.0244751, -0.2471313, 1.0211792, 2.6524390, -1.1280488, -1.1585366, -299.0000000, -139.5000000, -91.3750000
2021-10-24 10:39:03.279514 , -12.4230629, 0.8585534, -28.1499473, -0.0458984, -0.2217407, 1.0192871, 7.7134146, 2.3780488, -12.7439024, -297.1250000, -138.8750000, -88.0000000
2021-10-24 10:39:03.485884 , -12.1694775, 1.0450474, -28.3907353, -0.0353394, -0.2099609, 1.0204468, 1.8597561, 0.2743902, -5.7621951, -295.6250000, -141.3750000, -91.1250000
2021-10-24 10:39:03.692007 , -12.0208393, 1.2829978, -28.3408325, -0.0378418, -0.2045288, 1.0191040, -0.4573171, 0.3658537, -0.1219512, -299.2500000, -145.1250000, -88.2500000
2021-10-24 10:39:03.897446 , -11.9285977, 1.4417217, -28.4004388, -0.0371704, -0.2084351, 1.0197144, -0.3353659, -0.1829268, -0.2134146, -294.6250000, -145.7500000, -89.7500000
2021-10-24 10:39:04.103231 , -11.8418695, 1.5001610, -28.4219856, -0.0355835, -0.2080688, 1.0202637, 0.3658537, -0.3353659, -3.0182927, -299.5000000, -144.0000000, -87.5000000
2021-10-24 10:39:04.309168 , -11.7195460, 1.5252664, -28.5623141, -0.0340576, -0.2045288, 1.0198364, 0.2134146, -0.7926829, -2.2560976, -296.6250000, -147.2500000, -90.6250000
2021-10-24 10:39:04.515957 , -11.6653847, 1.5688356, -28.5897234, -0.0330200, -0.2069702, 1.0198975, 0.0304878, -0.2743902, -0.7012195, -297.8750000, -148.2500000, -87.0000000
2021-10-24 10:39:04.722200 , -11.6747199, 1.5350129, -28.7185515, -0.0309448, -0.2075195, 1.0208130, -0.7317073, -0.4268293, -3.9939024, -301.1250000, -148.2500000, -88.7500000
2021-10-24 10:39:04.928450 , -11.6478339, 1.5675507, -28.7320580, -0.0320435, -0.2086792, 1.0190430, 0.1219512, -0.2743902, -0.4268293, -297.2500000, -148.8750000, -87.5000000
2021-10-24 10:39:05.134683 , -11.6150924, 1.5777615, -28.7543903, -0.0298462, -0.2069702, 1.0208130, -0.1829268, -0.0914634, -0.2439024, -299.2500000, -150.7500000, -87.0000000
2021-10-24 10:39:05.340912 , -11.5898112, 1.5885768, -28.7012145, -0.0302734, -0.2069702, 1.0208130, -0.0304878, -0.0914634, -0.0304878, -298.7500000, -148.5000000, -87.1250000
2021-10-24 10:39:05.546321 , -11.5712886, 1.6202349, -28.6610567, -0.0317993, -0.2062378, 1.0217285, -0.3048780, 0.0000000, 0.0000000, -298.8750000, -147.7500000, -92.0000000
2021-10-24 10:39:05.752146 , -11.5631019, 1.6520990, -28.6748207, -0.0322876, -0.2070312, 1.0217896, -0.3963415, -0.0609756, 0.0304878, -298.3750000, -150.2500000, -85.6250000
2021-10-24 10:39:05.957767 , -11.5728073, 1.6601647, -28.6157087, -0.0311890, -0.2084961, 1.0216675, -0.1829268, -0.0304878, 0.0000000, -301.7500000, -149.5000000, -87.1250000
2021-10-24 10:39:06.163483 , -11.5488670, 1.7283526, -28.5958239, -0.0293579, -0.2048950, 1.0269165, -1.2195122, 0.8536585, 3.2012195, -298.1250000, -152.3750000, -90.8750000
2021-10-24 10:39:06.369751 , -11.5644139, 1.7337876, -28.7089590, -0.0360107, -0.2103882, 1.0200195, 0.0304878, -0.8841463, -1.2195122, -299.0000000, -151.3750000, -87.6250000
2021-10-24 10:39:06.575730 , -11.6027487, 1.7111366, -28.8066034, -0.0306396, -0.2113647, 1.0209961, -0.4268293, -0.3353659, -0.2134146, -294.2500000, -150.1250000, -88.7500000
2021-10-24 10:39:06.782159 , -11.5986313, 1.7312008, -28.9245614, -0.0348511, -0.2093506, 1.0203857, -0.1219512, -0.4268293, -1.0060976, -293.5000000, -149.5000000, -90.5000000
2021-10-24 10:39:06.988002 , -11.4153732, 1.6520939, -29.0078177, -0.0307007, -0.2008057, 1.0286255, 1.0365854, -1.6158537, 0.1524390, -295.5000000, -153.2500000, -87.0000000
2021-10-24 10:39:07.193962 , -11.3610672, 1.5496337, -29.1383932, -0.0238647, -0.2052002, 1.0213013, 0.2134146, -1.3414634, 1.8902439, -286.6250000, -152.6250000, -88.1250000
2021-10-24 10:39:07.400078 , -11.2631961, 1.3562777, -29.1836179, -0.0155029, -0.2008667, 1.0221558, 0.4573171, -1.5243902, 1.9512195, -285.2500000, -150.0000000, -89.0000000
2021-10-24 10:39:07.605204 , -11.1921372, 1.1638710, -29.2306727, -0.0111084, -0.1968384, 1.0272217, -1.3109756, -2.0426829, 4.7256098, -283.1250000, -153.6250000, -88.2500000
2021-10-24 10:39:07.811677 , -11.1889469, 1.0079252, -29.3778955, -0.0021973, -0.2075806, 1.0230713, 0.7926829, 1.0060976, 0.9756098, -283.3750000, -150.7500000, -87.3750000
2021-10-24 10:39:08.017213 , -11.1307942, 1.0709269, -29.6867217, -0.0195312, -0.1984863, 1.0205688, -0.3963415, 0.6707317, -0.6097561, -285.3750000, -155.2500000, -90.5000000
2021-10-24 10:39:08.223391 , -10.8581464, 1.0040505, -30.6125687, -0.0195312, -0.1826782, 1.0203247, 0.3048780, 0.0000000, -10.8231707, -287.5000000, -163.7500000, -88.8750000
2021-10-24 10:39:08.429608 , -10.9194099, 1.0448496, -30.6152841, -0.0194702, -0.2038574, 1.0215454, 0.5792683, 0.3963415, 0.6097561, -289.6250000, -159.1250000, -87.5000000
2021-10-24 10:39:08.635854 , -10.1479011, 1.9996234, -29.1727495, -0.1019897, -0.1502075, 1.0035400, 5.2439024, -5.7317073, 24.7256098, -287.8750000, -150.0000000, -88.8750000
2021-10-24 10:39:08.841850 , -6.0447154, 1.3425739, -32.2768102, -0.0351562, 0.0809326, 1.0592651, 18.9024390, -5.4573171, -53.5365854, -285.3750000, -166.7500000, -97.8750000
2021-10-24 10:39:09.047647 , -7.2775910, -8.0747956, -27.9285669, 0.0753174, -0.3193359, 1.0976562, -14.5121951, -155.0000000, 75.2439024, -193.0000000, -129.6250000, 24574.6250000
2021-10-24 10:39:09.253479 , -7.3348661, -12.1167466, -23.2715184, 0.3163452, -0.2815552, 0.7669067, 69.6036585, -38.0792683, 98.1097561, -154.8750000, -90.6250000, -12.3750000
2021-10-24 10:39:09.459564 , -8.7141850, -6.9057308, -23.5995801, 0.2028809, -0.2902832, 1.2453003, -4.6036585, 94.6341463, 6.0365854, -186.2500000, -79.8750000, -14.5000000
2021-10-24 10:39:09.665491 , -10.2358169, -5.8503917, -22.5323599, 0.1968994, -0.2592773, 0.9989624, -3.5670732, 37.4695122, 19.3292683, -192.1250000, -76.1250000, -17.1250000
2021-10-24 10:39:09.872001 , -11.1664617, -6.1290448, -22.7703115, 0.1352539, -0.2656860, 1.0202637, -0.4573171, 0.6097561, -0.1524390, -194.6250000, -83.7500000, -20.3750000
2021-10-24 10:39:10.077513 , -11.8312908, -6.3696271, -22.8896005, 0.1339722, -0.2604980, 1.0228271, -0.1524390, -0.1524390, 0.0304878, -193.0000000, -81.8750000, -18.8750000
2021-10-24 10:39:10.283371 , -12.3752475, -6.5442014, -23.1049741, 0.1326294, -0.2606201, 1.0226440, -0.7012195, -0.1524390, -0.3658537, -190.5000000, -83.0000000, -16.6250000
2021-10-24 10:39:10.489954 , -12.6790072, -6.7800924, -23.1422285, 0.1373901, -0.2564697, 1.0245361, 1.0670732, -1.0060976, -0.3048780, -189.3750000, -78.6250000, -21.5000000
2021-10-24 10:39:10.695228 , -12.9325895, -6.9284563, -23.0467659, 0.1367798, -0.2540894, 1.0232544, 0.5792683, -0.2743902, 0.0304878, -190.5000000, -77.7500000, -17.8750000
2021-10-24 10:39:10.901157 , -13.1701892, -6.9865803, -22.9466734, 0.1343384, -0.2534790, 1.0234375, -0.3658537, 0.3353659, 0.1524390, -190.5000000, -77.3750000, -17.0000000
2021-10-24 10:39:11.106780 , -13.3573599, -7.0310930, -22.8866983, 0.1341553, -0.2537842, 1.0230103, -0.3658537, 0.3048780, 0.0914634, -193.1250000, -78.7500000, -16.8750000
2021-10-24 10:39:11.312727 , -13.4939602, -7.0344105, -23.0383712, 0.1329956, -0.2539062, 1.0235596, -0.5792683, 0.5182927, 0.0000000, -191.6250000, -81.3750000, -17.7500000
2021-10-24 10:39:11.518191 , -13.6335491, -7.0776306, -23.2235242, 0.1324463, -0.2586670, 1.0212402, -0.0914634, -0.4573171, -0.1829268, -189.8750000, -81.3750000, -19.7500000
2021-10-24 10:39:11.724127 , -13.7362655, -7.1029269, -23.3544363, 0.1333008, -0.2552490, 1.0221558, -0.7621951, -0.0609756, -0.0914634, -190.7500000, -79.6250000, -25.5000000
2021-10-24 10:39:11.930077 , -13.7465303, -6.8786135, -23.3677740, 0.1049194, -0.2508545, 1.0131836, 0.5182927, -1.4024390, -0.5487805, -191.5000000, -80.0000000, -19.0000000
2021-10-24 10:39:12.135429 , -13.8546217, -6.7130425, -23.2211749, 0.1122437, -0.2568970, 1.0229492, -0.3353659, -0.0304878, -0.0609756, -197.3750000, -78.8750000, -22.2500000
2021-10-24 10:39:12.341366 , -13.9815942, -6.2716381, -23.2410127, 0.1036987, -0.2668457, 1.0438232, -0.5182927, 3.7804878, 0.1219512, -194.6250000, -80.7500000, -18.6250000
2021-10-24 10:39:12.587149 , -14.0911036, -5.9710067, -23.1067155, 0.0992432, -0.2647705, 1.0266724, 0.1219512, 2.3170732, -0.1524390, -193.0000000, -77.0000000, -19.7500000
2021-10-24 10:39:12.813204 , -14.2004397, -5.6937025, -22.9467536, 0.0921021, -0.2583008, 1.0250244, -1.7073171, 1.3719512, 0.3963415, -197.6250000, -77.7500000, -22.2500000
2021-10-24 10:39:13.028505 , -14.2226580, -5.5352221, -22.8685336, 0.0889282, -0.2569580, 1.0283813, -1.0975610, -0.5487805, -0.6097561, -195.7500000, -78.1250000, -19.6250000
2021-10-24 10:39:13.251700 , -14.3457010, -5.3880846, -22.8853060, 0.0956421, -0.2611694, 1.0020752, -0.8536585, 1.8292683, 0.4268293, -196.7500000, -80.6250000, -19.8750000
2021-10-24 10:39:13.511093 , -14.2701235, -5.1277319, -23.1987405, 0.0856323, -0.2534180, 1.0174561, -0.6707317, 2.2560976, -0.9451220, -196.0000000, -82.5000000, -26.6250000
2021-10-24 10:39:13.726141 , -14.2138520, -5.1401274, -23.2222690, 0.0850220, -0.2592163, 1.0243530, 0.8231707, -2.5914634, -0.5792683, -197.6250000, -81.7500000, -22.5000000
2021-10-24 10:39:13.931528 , -13.8200811, -5.0104190, -23.2290879, 0.0875244, -0.2557983, 1.0728760, 4.7560976, -1.4024390, 4.9695122, -190.7500000, -84.6250000, -16.5000000
2021-10-24 10:39:14.184672 , -12.6027161, -5.3604503, -23.5055725, 0.0963135, -0.2236938, 1.0351562, 17.9573171, -6.8292683, 0.6097561, -179.2500000, -83.1250000, -9.6250000
2021-10-24 10:39:14.411876 , -10.9202409, -1.5955193, -24.2724471, 0.1151123, -0.1918945, 1.0163574, -4.9695122, 6.4024390, 3.2926829, -176.8750000, -91.2500000, -24576.3750000
2021-10-24 10:39:14.665139 , -11.4179387, -2.1138687, -25.4166853, 0.0964355, -0.1941528, 1.0538330, -10.3048780, 5.6707317, 4.1158537, -170.8750000, -102.5000000, 3.5000000
2021-10-24 10:39:14.889359 , -12.0526359, -1.3374998, -26.9885176, 0.0451050, -0.1958008, 0.9884644, -9.1768293, 19.7256098, 7.1646341, -168.2500000, -117.1250000, 13.0000000
2021-10-24 10:39:15.091848 , -12.3483742, -1.2899521, -28.2146779, -0.0092773, -0.2075806, 1.0382080, -4.0548780, -6.1585366, 8.7804878, -163.1250000, -120.5000000, 13.1250000
2021-10-24 10:39:15.296914 , -12.2986473, -1.5800815, -29.6903986, 0.0131226, -0.1948853, 0.9951782, 1.9207317, -6.6158537, 10.0000000, -153.8750000, -125.7500000, 12.7500000
2021-10-24 10:39:15.502949 , -11.7752843, -2.1963019, -31.5479624, 0.0437012, -0.1838379, 1.0119629, 8.9329268, -5.4573171, 6.4329268, -145.7500000, -130.1250000, 13.2500000
2021-10-24 10:39:15.708808 , -15.0392768, -2.4481484, -34.0902420, 0.0747070, -0.2427368, 1.0330811, -51.2195122, 11.4939024, -3.8414634, -154.6250000, -153.1250000, 28.8750000
2021-10-24 10:39:15.914134 , -16.2161880, -1.9245482, -36.0772801, 0.0065918, -0.3083496, 1.0250244, -7.5914634, 9.7256098, -2.8658537, -157.2500000, -163.7500000, 34.2500000
2021-10-24 10:39:16.119636 , -16.9686419, -0.1439408, -37.5787754, -0.0665894, -0.3373413, 1.0435791, -1.4329268, 18.8719512, -1.2500000, -166.8750000, -169.2500000, 33.5000000
2021-10-24 10:39:16.324961 , -16.5126270, 1.1834045, -38.2705609, -0.1074829, -0.2984619, 0.9744873, 14.5121951, 2.5914634, 3.9329268, -173.1250000, -172.2500000, 31.8750000
2021-10-24 10:39:16.530417 , -17.5383687, 0.9507732, -39.7536545, -0.0604858, -0.3303223, 1.0809937, -10.7012195, -5.8536585, -0.1219512, -161.0000000, -181.7500000, 27.2500000
2021-10-24 10:39:16.736666 , -17.1709429, 0.6794798, -41.2253074, -0.0501709, -0.3261719, 1.0772095, 10.0000000, -6.0060976, -6.6768293, -165.0000000, -181.6250000, 12.0000000
2021-10-24 10:39:16.942324 , -11.3054919, -0.6018767, -40.8693213, -0.0963745, -0.2929688, 0.9520874, 9.4817073, 2.8353659, -4.8780488, -169.7500000, -181.7500000, 8198.8750000
2021-10-24 10:39:17.148792 , -8.8506389, -1.5842444, -40.8170902, -0.0261841, -0.2586670, 1.0109863, -8.7195122, -2.6524390, -4.9695122, -172.7500000, -188.2500000, 8199.2500000
2021-10-24 10:39:17.353867 , -9.1125243, 0.5611108, -41.2012642, -0.0369263, -0.2647705, 1.0105591, 5.4573171, -6.7378049, -2.7439024, -171.7500000, -180.6250000, -8195.5000000
2021-10-24 10:39:17.560082 , -9.8835491, 0.1729295, -42.9064478, -0.0007324, -0.2569580, 1.0566406, 6.3414634, -2.8353659, -7.4390244, -164.5000000, -180.0000000, -9.6250000
2021-10-24 10:39:17.765954 , -10.3883026, -1.2012117, -44.4127759, 0.0070190, -0.2208252, 0.9784546, 3.3841463, -23.7195122, -6.7682927, -147.7500000, -171.5000000, -14.7500000
2021-10-24 10:39:17.971467 , -10.5201111, -1.2993262, -46.1924964, -0.0061035, -0.2010498, 1.0714722, -0.5182927, -6.9817073, -3.8719512, -134.0000000, -171.8750000, -17.1250000
2021-10-24 10:39:18.177863 , -10.4249535, -1.1472255, -47.6798748, 0.0228271, -0.1936035, 0.9758911, 6.2804878, 3.4451220, 5.6402439, -124.5000000, -172.0000000, -19.6250000
2021-10-24 10:39:18.383164 , -9.8669278, -1.3472711, -49.4134115, 0.0254517, -0.1601562, 1.0017090, 6.4024390, -1.9512195, 1.6158537, -115.2500000, -170.7500000, -20.0000000
2021-10-24 10:39:18.589473 , -9.3509651, -2.5637631, -50.9972647, 0.0646362, -0.1614380, 1.0469971, 5.4268293, -15.6707317, -0.5792683, -110.8750000, -169.3750000, -26.0000000
2021-10-24 10:39:18.794987 , -8.4018371, -3.7848027, -52.4765579, 0.0870361, -0.1009521, 0.9890137, 2.9573171, -15.5487805, 0.9451220, -105.2500000, -167.8750000, -28.6250000
2021-10-24 10:39:19.000244 , -7.8253643, -5.0661870, -54.0449724, 0.1516724, -0.1199341, 1.0285645, 2.3780488, -8.7804878, 1.9817073, -97.1250000, -165.5000000, -33.0000000
2021-10-24 10:39:19.206441 , -7.0586605, -6.6583551, -55.5748450, 0.1834717, -0.1088257, 1.0255737, 5.4878049, -13.7500000, -0.6097561, -94.2500000, -164.5000000, -37.3750000
2021-10-24 10:39:19.412991 , -6.6098949, -7.7451815, -57.0334412, 0.2041626, -0.0977173, 1.0000000, -0.2743902, -4.9085366, -1.3719512, -91.5000000, -162.1250000, -42.3750000
2021-10-24 10:39:19.619205 , -6.0806527, -8.5686162, -58.1516611, 0.2306519, -0.1018066, 1.0263062, 4.3597561, 1.2500000, -0.3353659, -90.3750000, -158.8750000, -41.6250000
2021-10-24 10:39:19.824505 , -5.1603780, -8.7111024, -58.8560179, 0.1958008, -0.0578613, 0.9913330, 5.4878049, 5.1829268, 4.2073171, -93.6250000, -161.6250000, -45.3750000
2021-10-24 10:39:20.029941 , -4.4704434, -9.5453034, -59.6723005, 0.2247925, -0.0419922, 0.9719849, 0.3048780, -0.9756098, -0.7012195, -91.5000000, -158.2500000, -47.1250000
2021-10-24 10:39:20.235214 , -3.8524431, -10.2098032, -60.5749026, 0.2276001, -0.0487061, 1.0202637, 2.8048780, -3.9634146, -0.4268293, -88.6250000, -162.3750000, -45.3750000
2021-10-24 10:39:20.440691 , -3.1249070, -10.7216962, -60.9929551, 0.2147217, -0.0276489, 0.9830933, 4.1768293, -3.0182927, 0.9451220, -91.2500000, -158.1250000, -43.6250000
2021-10-24 10:39:20.646682 , -2.8425665, -11.7050892, -61.6120559, 0.2744751, -0.0490723, 0.9898071, 2.7439024, -3.1097561, 1.9817073, -86.7500000, -159.7500000, -50.2500000
2021-10-24 10:39:20.852006 , -2.3508968, -12.2519301, -62.4085452, 0.2600098, -0.0316772, 0.9874268, 3.3536585, -2.8963415, 1.5853659, -85.2500000, -162.3750000, -53.6250000
2021-10-24 10:39:21.058032 , -2.1714957, -13.0481281, -62.9826319, 0.2833862, -0.0252075, 0.9635010, -1.7073171, -1.3414634, 0.7012195, -85.0000000, -158.8750000, -48.2500000
2021-10-24 10:39:21.263357 , -2.3798656, -13.6042910, -63.5224533, 0.2884521, -0.0426636, 0.9823608, -4.5121951, -0.6707317, 1.6158537, -83.0000000, -159.1250000, -49.0000000
2021-10-24 10:39:21.469411 , -2.3021475, -13.6733463, -64.0130505, 0.2592163, -0.0339966, 0.9765625, -1.4634146, 1.0670732, 0.7621951, -85.6250000, -162.8750000, -49.1250000
2021-10-24 10:39:21.674829 , -2.3583465, -13.9015231, -64.2581047, 0.2731323, -0.0452881, 0.9974976, -0.5792683, 0.7317073, 0.6707317, -85.7500000, -158.7500000, -48.7500000
2021-10-24 10:39:21.880060 , -2.4918525, -14.1664410, -64.6419899, 0.2774048, -0.0501709, 0.9913940, -1.4939024, -0.3963415, 0.4268293, -84.2500000, -163.1250000, -47.1250000
2021-10-24 10:39:22.085789 , -2.7182912, -14.2781194, -65.0655883, 0.2731934, -0.0621338, 0.9667969, -0.5792683, 1.2500000, 1.7073171, -82.3750000, -165.3750000, -49.6250000
2021-10-24 10:39:22.291072 , -2.9537042, -14.1060805, -65.1744156, 0.2497559, -0.0561523, 0.9712524, -2.5609756, 3.2621951, 0.3963415, -85.8750000, -163.8750000, -43.2500000
2021-10-24 10:39:22.497019 , -3.3440942, -13.8110302, -65.2713467, 0.2466431, -0.0688477, 1.0039062, -3.7500000, 2.8963415, 2.9878049, -84.3750000, -166.5000000, -44.6250000
2021-10-24 10:39:22.702559 , -3.8305137, -13.6304268, -65.2960706, 0.2427979, -0.0905151, 0.9719238, -1.4634146, 3.6585366, 0.6707317, -86.8750000, -167.7500000, -45.7500000
2021-10-24 10:39:22.908989 , -4.3825324, -12.8401182, -65.0969327, 0.2218628, -0.1121216, 1.0082397, 0.0000000, 11.0975610, 0.4268293, -91.3750000, -170.6250000, -43.2500000
2021-10-24 10:39:23.114061 , -5.0320856, -12.0444903, -64.6216177, 0.1997070, -0.1038208, 0.9909668, -5.6097561, 11.8292683, -0.1524390, -94.3750000, -166.0000000, -38.8750000
2021-10-24 10:39:23.319941 , -5.4956220, -10.6342928, -63.7315377, 0.1519165, -0.1151123, 0.9987183, -1.5548780, 18.1097561, -2.3170732, -104.7500000, -165.2500000, -36.3750000
2021-10-24 10:39:23.525321 , -5.8167063, -8.4435389, -61.7913643, 0.0487671, -0.1039429, 1.0603638, -1.4329268, 10.3963415, 22.4085366, -108.1250000, -171.3750000, -33.7500000
2021-10-24 10:39:23.731014 , -6.2221670, -6.7404374, -60.5430466, 0.0539551, -0.1264038, 1.0363159, -2.0121951, 14.3292683, -1.3109756, -120.5000000, -168.0000000, -29.5000000
2021-10-24 10:39:23.937013 , -6.6505022, -4.9583389, -58.8553572, 0.0233154, -0.1493530, 1.0325928, 0.6707317, 17.6219512, -11.5548780, -138.7500000, -160.7500000, -22.2500000
2021-10-24 10:39:24.142997 , -6.2216093, -2.7462688, -56.4266969, -0.0917358, -0.0924072, 1.0206909, 3.5975610, 3.9329268, -0.8841463, -151.6250000, -160.2500000, -21.1250000
2021-10-24 10:39:24.349220 , -6.4694642, -0.4540910, -56.3194498, -0.0241089, -0.1065063, 0.9566650, -7.7439024, 0.3353659, 6.0060976, -162.7500000, -156.0000000, -24578.6250000
2021-10-24 10:39:24.554629 , -4.1936561, 0.7945165, -56.0316215, -0.0746460, -0.1252441, 1.0250854, 4.2073171, 11.5853659, 5.7317073, -166.3750000, -149.5000000, 8197.0000000
2021-10-24 10:39:24.760377 , -4.5911853, 2.7480196, -52.5495633, -0.1253052, -0.1107788, 1.0815430, -6.8292683, 9.5426829, -0.2439024, -171.3750000, -140.0000000, 7.0000000
2021-10-24 10:39:24.966274 , -2.5567280, 2.8295929, -52.8430768, -0.1462402, -0.0986328, 1.0046387, 11.8902439, -0.1524390, -7.6219512, -172.7500000, -130.5000000, 16386.5000000
2021-10-24 10:39:25.172456 , -1.6345670, 1.9088450, -52.7462629, -0.0955811, -0.0473633, 0.9873657, -2.2560976, -11.2195122, 0.8841463, -163.3750000, -121.8750000, 24576.5000000
2021-10-24 10:39:25.407556 , -3.2120240, 1.2883425, -52.5160807, -0.0836182, -0.1226807, 1.0567627, -22.5000000, -13.8109756, 4.8170732, -164.1250000, -120.6250000, 16388.6250000
2021-10-24 10:39:25.612622 , -3.4458907, 1.3215554, -52.5641024, -0.0535278, -0.1497192, 1.0291138, -1.7073171, 0.5182927, -1.1585366, -165.6250000, -111.3750000, 8195.6250000
2021-10-24 10:39:25.827526 , -3.4638016, 1.4091099, -52.4685637, -0.0656128, -0.1480713, 1.0516357, -5.2134146, 3.6585366, 1.7682927, -172.5000000, -98.0000000, 16387.1250000
2021-10-24 10:39:26.051558 , -5.3361104, 2.3912033, -52.6172789, -0.0603027, -0.1882935, 0.9913940, -7.9268293, 8.3536585, -0.9146341, -181.0000000, -94.5000000, -24576.2500000
2021-10-24 10:39:26.286229 , -6.8740478, 3.1005140, -47.0961750, -0.0904541, -0.2049561, 1.0030518, -9.0548780, -0.3353659, 2.1646341, -182.0000000, -87.8750000, -9.3750000
2021-10-24 10:39:26.491232 , -8.5413090, 3.0213075, -42.6360803, -0.0573730, -0.2550659, 1.0415649, -6.0670732, -3.3231707, 4.1158537, -180.5000000, -88.3750000, -17.0000000
2021-10-24 10:39:26.725775 , -10.1899602, 3.0856523, -39.3694257, -0.0662842, -0.2735596, 1.0481567, -8.7804878, -2.1646341, 1.7682927, -178.8750000, -90.8750000, -19.0000000
2021-10-24 10:39:26.931996 , -12.4347538, 3.3760525, -37.0204750, -0.0628052, -0.3074341, 0.9697876, -13.4756098, 4.0243902, 1.0365854, -177.3750000, -90.8750000, -28.6250000
2021-10-24 10:39:27.166666 , -13.6304181, 2.4713516, -34.7797397, -0.0510254, -0.3161011, 0.9873047, -1.5548780, -18.2926829, 6.0365854, -172.1250000, -89.5000000, -28.7500000
2021-10-24 10:39:27.371466 , -13.8257240, 1.4436914, -33.6609137, 0.0134277, -0.3112183, 1.0123291, 11.3719512, -7.4085366, 0.2439024, -169.3750000, -93.6250000, -27.1250000
2021-10-24 10:39:27.625080 , -14.0819473, 0.9326617, -32.4891089, 0.0181885, -0.2893677, 1.0273438, 3.2012195, 0.0000000, 0.8536585, -168.3750000, -87.6250000, -24.6250000
2021-10-24 10:39:27.846906 , -14.2310748, 0.1504004, -31.5039355, 0.0380249, -0.2725830, 1.0294800, 0.7317073, -2.4390244, -1.1585366, -169.5000000, -85.2500000, -27.6250000
2021-10-24 10:39:28.048827 , -14.7034292, -0.7310266, -30.8916123, 0.0477295, -0.2839966, 1.0180054, -3.5060976, -5.7926829, -1.2500000, -166.0000000, -87.6250000, -24.6250000
2021-10-24 10:39:28.251249 , -14.8148298, -1.5927709, -30.5283112, 0.0701294, -0.2762451, 1.0212402, -0.2134146, -4.6341463, 1.6463415, -166.3750000, -92.1250000, -24.7500000
2021-10-24 10:39:28.457035 , -14.9642951, -2.0620417, -30.0384979, 0.0634766, -0.2821655, 1.0268555, -0.4268293, -1.2500000, -0.9451220, -168.6250000, -87.5000000, -22.0000000
2021-10-24 10:39:28.662721 , -15.0680241, -2.4516182, -29.8248242, 0.0695801, -0.2825317, 1.0234375, 0.0914634, -0.3963415, -0.1219512, -168.1250000, -90.2500000, -24.0000000
2021-10-24 10:39:28.869172 , -15.1262434, -2.6735933, -29.6290277, 0.0687256, -0.2806396, 1.0227661, 0.2134146, 1.1890244, 0.0304878, -166.5000000, -88.0000000, -25.7500000
2021-10-24 10:39:29.075985 , -15.5655889, -2.9303025, -29.4071629, 0.0737305, -0.2995605, 1.0505371, -5.5487805, 0.5487805, -1.7378049, -167.8750000, -88.2500000, -19.1250000
2021-10-24 10:39:29.281802 , -14.8435028, -2.1548333, -29.4356716, 0.0333862, -0.2728271, 1.0388184, 10.6707317, 12.1646341, -3.3536585, -172.5000000, -93.1250000, -9.5000000
2021-10-24 10:39:29.487312 , -10.2861454, -4.2365474, -28.7698020, 0.0272827, -0.2624512, 1.0127563, -0.7621951, -1.3719512, 4.1158537, -168.3750000, -97.3750000, 32766.6250000
2021-10-24 10:39:29.693783 , -7.3131024, -5.0538339, -28.5753749, 0.0361328, -0.2427368, 1.0342407, 7.7743902, -5.3963415, -1.5243902, -159.7500000, -101.5000000, 16389.8750000
2021-10-24 10:39:29.899771 , -8.3254524, -4.7842566, -29.9421720, 0.0527954, -0.2385864, 1.0580444, 5.0000000, -1.7073171, -10.8231707, -161.6250000, -111.7500000, 27.6250000
2021-10-24 10:39:30.105116 , -9.5306608, -4.0759098, -31.8530507, 0.0379028, -0.2397461, 1.0404663, -0.5792683, 7.0121951, -12.6219512, -161.7500000, -127.3750000, 31.5000000
2021-10-24 10:39:30.311071 , -9.2806930, -3.5709567, -33.6465707, -0.0161133, -0.1765137, 1.0034790, 12.2865854, -7.0731707, -7.1951220, -160.2500000, -140.8750000, 32.3750000
2021-10-24 10:39:30.516886 , -9.6151118, -3.4204256, -35.8184558, 0.0140381, -0.1674805, 1.0236816, -1.4329268, -4.2378049, -5.4268293, -160.2500000, -157.6250000, 24.0000000
2021-10-24 10:39:30.722785 , -9.3425673, -3.1309354, -37.6330852, 0.0008545, -0.1599121, 1.0208130, 6.3109756, -5.2439024, -4.3597561, -163.0000000, -162.6250000, 17.6250000
2021-10-24 10:39:30.928720 , -5.6662992, -3.5265035, -37.6163883, 0.0161743, -0.1254883, 1.0087891, 4.9390244, -4.3902439, -2.0121951, -166.1250000, -168.0000000, 8197.6250000
2021-10-24 10:39:31.134866 , -5.7710106, -3.9402670, -39.4771872, 0.0654297, -0.1254272, 1.0285034, 2.8963415, -8.3231707, -3.4451220, -162.8750000, -166.5000000, -10.5000000
2021-10-24 10:39:31.341058 , -5.9190994, -4.4638292, -41.8197816, 0.0903320, -0.0949707, 1.0441895, -6.6158537, -6.4634146, -5.0000000, -143.1250000, -165.8750000, -10.3750000
2021-10-24 10:39:31.547062 , -6.1561764, -4.8381013, -43.9460959, 0.0701904, -0.1085205, 1.0137939, -4.2378049, -11.1280488, 3.7500000, -127.1250000, -166.8750000, -10.5000000
2021-10-24 10:39:31.752786 , -6.1695499, -4.2567453, -45.5864366, 0.0610352, -0.1180420, 1.0741577, 0.4268293, 2.2256098, 12.8963415, -119.5000000, -165.5000000, -14.8750000
2021-10-24 10:39:31.958103 , -5.9545670, -4.7625232, -47.7099449, 0.1177979, -0.1171875, 1.0036621, 5.7926829, -2.4390244, 9.1463415, -107.6250000, -167.3750000, -18.1250000
2021-10-24 10:39:32.163791 , -6.0574632, -5.6796489, -49.9350276, 0.1400146, -0.1160889, 1.0024414, -0.9146341, -8.2926829, 6.2804878, -101.6250000, -170.6250000, -21.8750000
2021-10-24 10:39:32.369145 , -5.8079055, -6.4925555, -51.9114242, 0.1794434, -0.1152344, 1.0314941, 4.6036585, -0.6097561, -0.1524390, -103.5000000, -169.5000000, -21.6250000
2021-10-24 10:39:32.574713 , -5.1344775, -6.6324118, -53.6130224, 0.1362305, -0.0693970, 1.0105591, 3.8414634, -0.7317073, 2.8658537, -97.6250000, -166.5000000, -23.1250000
2021-10-24 10:39:32.780698 , -4.8151778, -7.0548893, -54.8487120, 0.1608887, -0.0817871, 0.9935913, 3.6585366, -0.7621951, 7.3170732, -96.2500000, -168.6250000, -23.5000000
2021-10-24 10:39:32.986715 , -5.1630655, -7.8857289, -56.1724973, 0.1666870, -0.0876465, 0.9863281, -7.8353659, -8.9634146, 0.5792683, -95.6250000, -169.0000000, -26.1250000
2021-10-24 10:39:33.192682 , -4.8067647, -8.6892311, -57.6449853, 0.1989746, -0.0842285, 0.9955444, 3.5060976, -5.0000000, -0.7926829, -92.3750000, -172.3750000, -30.3750000
2021-10-24 10:39:33.398168 , -4.8654049, -9.6873938, -58.9680582, 0.2280273, -0.0847168, 1.0164795, -3.6890244, -6.7987805, -0.3353659, -91.0000000, -175.5000000, -32.2500000
2021-10-24 10:39:33.604371 , -4.8380742, -10.6136856, -60.0772014, 0.2438965, -0.0916748, 0.9965820, 0.3353659, -5.0304878, 1.0975610, -87.8750000, -172.7500000, -34.1250000
2021-10-24 10:39:33.810330 , -4.7644285, -11.4444491, -60.9331518, 0.2593384, -0.0914307, 1.0105591, 1.3719512, -3.0792683, -0.6097561, -90.0000000, -172.8750000, -32.1250000
2021-10-24 10:39:34.016720 , -4.3900917, -11.8317789, -61.7574287, 0.2553711, -0.0753784, 0.9942627, 4.4207317, 1.1890244, 2.8658537, -86.1250000, -170.7500000, -38.8750000
2021-10-24 10:39:34.222648 , -4.2262089, -12.5113167, -62.3731167, 0.2558594, -0.0659180, 0.9732056, -0.3963415, -3.1707317, -1.7378049, -90.2500000, -169.6250000, -38.1250000
2021-10-24 10:39:34.428947 , -4.3496865, -12.9691063, -62.9945863, 0.2648926, -0.0657349, 0.9785767, -5.7012195, 0.1524390, -1.2804878, -89.0000000, -172.1250000, -37.0000000
2021-10-24 10:39:34.634481 , -3.9602907, -13.3210661, -63.6100928, 0.2713623, -0.0688477, 1.0079956, 4.8475610, -0.8536585, 0.7012195, -86.0000000, -171.6250000, -40.6250000
2021-10-24 10:39:34.840743 , -3.5249825, -13.5581457, -64.1139849, 0.2598877, -0.0429688, 0.9648438, 1.9207317, 0.4268293, 1.7073171, -84.6250000, -168.3750000, -40.1250000
2021-10-24 10:39:35.046728 , -3.7079859, -13.0511660, -64.3853037, 0.2186279, -0.0437622, 0.9501343, -8.3841463, 7.0731707, -0.4878049, -90.6250000, -174.5000000, -35.1250000
2021-10-24 10:39:35.252762 , -4.3672446, -12.9902246, -64.6670424, 0.2404785, -0.1092529, 1.0311279, -4.1158537, 0.1219512, -1.5853659, -87.3750000, -175.0000000, -37.2500000
2021-10-24 10:39:35.458896 , -4.7870537, -12.8814433, -64.6907422, 0.2064819, -0.1186523, 1.0917358, -0.8231707, -8.2317073, -2.3475610, -88.7500000, -169.6250000, -37.6250000
2021-10-24 10:39:35.664748 , -3.7597334, -13.3136186, -64.5372872, 0.2476196, -0.0238037, 0.8931274, 7.8048780, 3.3841463, 3.0182927, -90.3750000, -167.3750000, -35.0000000
2021-10-24 10:39:35.871068 , -2.9408321, -13.6742762, -64.2511321, 0.2387085, -0.0139160, 0.9271240, 5.6402439, -1.7073171, 4.6951220, -92.3750000, -166.0000000, -38.5000000
2021-10-24 10:39:36.077025 , -2.6643729, -13.1006051, -64.0664841, 0.2152100, -0.0119019, 0.9303589, -2.9878049, 9.0853659, 5.0609756, -92.6250000, -172.0000000, -30.5000000
2021-10-24 10:39:36.283256 , -3.4686978, -12.6486833, -63.5791577, 0.2234497, -0.0721436, 1.0355835, -9.7865854, 6.1890244, 2.1646341, -97.7500000, -174.1250000, -25.6250000
2021-10-24 10:39:36.488891 , -4.4047539, -12.1964839, -63.1594058, 0.2014160, -0.1033936, 0.9993286, -7.9268293, 4.2987805, 0.8841463, -98.3750000, -176.3750000, -23.0000000
2021-10-24 10:39:36.694676 , -5.6840936, -10.8735721, -62.4573612, 0.1483765, -0.1304321, 1.0535278, -13.5670732, 8.8109756, 4.7560976, -102.7500000, -182.2500000, -14.8750000
2021-10-24 10:39:36.900697 , -6.5801445, -10.1527806, -61.5665539, 0.1461792, -0.1640015, 1.0281982, -2.6219512, 2.6829268, 2.2865854, -108.3750000, -180.8750000, -13.3750000
2021-10-24 10:39:37.106261 , -7.6443708, -8.8966668, -60.4714902, 0.1124878, -0.1835938, 1.0440063, -6.2804878, 7.7134146, 4.0548780, -114.7500000, -182.6250000, -8.0000000
2021-10-24 10:39:37.312275 , -8.4213552, -8.0004934, -60.0373336, 0.1018066, -0.1936035, 0.9999390, -0.9756098, 4.1768293, 1.9207317, -110.1250000, -185.8750000, -12.6250000
2021-10-24 10:39:37.517605 , -9.6293415, -4.5606176, -60.1088911, 0.0947266, -0.2036133, 1.0192871, -7.9573171, 0.0914634, 8.4451220, -112.7500000, -186.1250000, -8195.1250000
2021-10-24 10:39:37.724308 , -10.2467510, -2.5115765, -60.3186111, 0.0951538, -0.2340088, 1.0877075, -5.3048780, 2.0121951, 3.8109756, -116.3750000, -188.7500000, -8197.3750000
2021-10-24 10:39:37.930518 , -10.7627873, -1.3322475, -60.6407107, 0.0880127, -0.2391968, 0.9748535, -0.9756098, 3.2012195, 0.2134146, -118.3750000, -191.1250000, -8194.8750000
2021-10-24 10:39:38.185868 , -7.6903086, -2.3218692, -60.5977055, 0.0750122, -0.2574463, 1.0152588, -4.5731707, 6.7073171, -0.0609756, -120.2500000, -191.3750000, 16386.5000000
2021-10-24 10:39:38.409815 , -9.9144257, -2.2241554, -59.2994276, 0.0509644, -0.2932739, 1.0161133, -9.9390244, 0.9451220, 6.1585366, -127.3750000, -194.1250000, 8.2500000
2021-10-24 10:39:38.624670 , -11.6584241, -1.8994214, -58.2665372, 0.0390015, -0.3178101, 1.0245972, -5.3658537, 2.8963415, 2.3780488, -130.6250000, -194.0000000, 12.8750000
2021-10-24 10:39:38.829907 , -12.9754456, -1.4806936, -57.3558905, 0.0247803, -0.3405151, 1.0196533, 0.3658537, 2.8658537, -2.5914634, -134.3750000, -189.5000000, 15.2500000
2021-10-24 10:39:39.046459 , -14.5074957, -0.7599366, -56.0142605, 0.0171509, -0.3520508, 1.0303955, -9.3292683, 6.5853659, 3.7500000, -140.2500000, -185.6250000, 17.0000000
2021-10-24 10:39:39.252589 , -15.4415698, 0.1278841, -55.0407466, 0.0000000, -0.3777466, 0.9789429, 4.9695122, 10.3048780, -5.6097561, -145.7500000, -181.1250000, 21.3750000
2021-10-24 10:39:39.486445 , -16.5822647, 1.3217593, -53.3600165, -0.0424194, -0.3863525, 1.0353394, -10.0914634, 5.8841463, -1.4024390, -156.3750000, -173.1250000, 30.1250000
2021-10-24 10:39:39.691416 , -16.9800706, 2.5885236, -51.4405211, -0.0661011, -0.3736572, 0.9973755, -3.9024390, 4.1463415, -6.4634146, -164.2500000, -158.5000000, 38.3750000
2021-10-24 10:39:39.932254 , -16.9996204, 3.5371658, -48.5432626, -0.0540161, -0.3993530, 1.0494995, 0.9451220, 2.3170732, 6.4024390, -171.0000000, -142.8750000, 32.1250000
2021-10-24 10:39:40.147633 , -17.4387893, 3.7322248, -45.5506979, -0.0544434, -0.4050903, 1.0046387, -3.5365854, -6.8292683, -2.2256098, -180.2500000, -125.7500000, 24.3750000
2021-10-24 10:39:40.371514 , -18.2368943, 4.1220199, -42.5431490, -0.0475464, -0.4281006, 1.0681152, -12.8353659, 3.2012195, -3.2621951, -182.3750000, -109.3750000, 16.0000000
2021-10-24 10:39:40.604851 , -12.5642895, 0.8317228, -41.8335496, -0.0872803, -0.4027710, 1.0053711, 8.2621951, 1.8292683, -1.8902439, -184.2500000, -103.6250000, 16390.6250000
2021-10-24 10:39:40.806878 , -14.1328456, 1.0476409, -38.7440327, -0.0592041, -0.3949585, 0.9866943, 3.9024390, -10.2439024, 2.9268293, -180.7500000, -97.8750000, -6.3750000
2021-10-24 10:39:41.008926 , -15.6189027, 0.7798146, -36.6192997, -0.0197144, -0.4019775, 1.0163574, -1.2804878, -8.4756098, 0.4573171, -172.2500000, -97.3750000, -6.6250000
2021-10-24 10:39:41.213693 , -16.7032704, 0.0549337, -34.8011086, -0.0070801, -0.4039917, 1.0174561, 2.9573171, -15.1829268, 0.7926829, -168.1250000, -92.8750000, -16.1250000
2021-10-24 10:39:41.420039 , -17.2591632, -0.4994724, -33.7194995, 0.0351562, -0.3706055, 1.0175171, 2.6524390, -3.7804878, 0.7621951, -163.2500000, -93.3750000, -19.3750000
2021-10-24 10:39:41.625871 , -18.0172278, -0.5625457, -32.9173832, 0.0292969, -0.3728027, 1.0214844, -4.4512195, 2.6219512, 0.3658537, -167.5000000, -97.5000000, -11.2500000
2021-10-24 10:39:41.831866 , -13.6476690, -2.4917100, -32.6628367, -0.0089722, -0.4133911, 1.0125122, -6.3414634, 18.4756098, -6.7682927, -177.2500000, -103.7500000, 32766.6250000
2021-10-24 10:39:42.037448 , -15.6434717, -1.1507563, -32.2654629, -0.0596313, -0.4046021, 1.0019531, -5.4573171, 2.1036585, -0.9451220, -177.0000000, -112.8750000, 16.2500000
2021-10-24 10:39:42.244247 , -16.7817915, -0.4477586, -33.7466515, -0.0501099, -0.4145508, 1.0440674, 8.9939024, 3.9024390, -7.3170732, -165.2500000, -141.3750000, 26.3750000
2021-10-24 10:39:42.450432 , -18.4127506, -0.3623109, -35.7335781, -0.0305786, -0.4111938, 1.0150146, 0.1829268, 1.0365854, -1.2804878, -156.0000000, -162.2500000, 24.2500000
2021-10-24 10:39:42.656311 , -19.6730340, -0.1856266, -38.3307261, -0.0575562, -0.3847046, 0.9735107, 0.6097561, -0.9756098, -0.0609756, -145.8750000, -180.5000000, 11.8750000
2021-10-24 10:39:42.862805 , -13.3910463, -2.7729154, -37.3930643, -0.0427246, -0.3591309, 0.9948120, 7.7743902, -8.9024390, 1.4024390, -138.5000000, -189.2500000, 8197.6250000
2021-10-24 10:39:43.068526 , -12.9332577, 0.4605573, -38.1778616, -0.0202637, -0.3316650, 1.0371094, 5.9756098, -8.2012195, -3.9939024, -129.1250000, -192.7500000, -16384.5000000
2021-10-24 10:39:43.274504 , -14.0531351, -0.6558183, -42.2391308, 0.0093384, -0.3117065, 1.0034790, 5.7012195, -7.2256098, -4.2682927, -123.1250000, -192.5000000, -4.6250000
2021-10-24 10:39:43.481736 , -14.1529836, -1.1906577, -45.6639510, 0.0224609, -0.2739868, 0.9723511, 12.0731707, 0.6097561, -3.0182927, -117.5000000, -190.0000000, -10.5000000
2021-10-24 10:39:43.692076 , -15.2777360, -1.5125755, -48.2697516, 0.0266724, -0.3046875, 1.0527954, -9.4817073, -0.8231707, 4.5121951, -116.3750000, -196.0000000, -17.3750000
2021-10-24 10:39:43.898416 , -14.7053872, -2.2892245, -50.6065700, 0.0632324, -0.2870483, 1.0397949, 15.9451220, -2.1951220, -1.9817073, -111.3750000, -188.2500000, -17.0000000
2021-10-24 10:39:44.103623 , -13.7566506, -3.5072372, -52.5403313, 0.0732422, -0.2207031, 1.0280762, 10.2439024, -14.2378049, -0.0609756, -104.7500000, -186.1250000, -19.7500000
2021-10-24 10:39:44.309906 , -13.0979563, -4.2641564, -54.6279500, 0.0967407, -0.2029419, 1.0399170, 1.9817073, -5.6707317, -3.6890244, -99.8750000, -183.8750000, -27.6250000
2021-10-24 10:39:44.515004 , -12.6192847, -5.1698730, -56.2532138, 0.1256714, -0.1921997, 0.9961548, 0.3658537, -4.8475610, -2.1646341, -97.5000000, -181.2500000, -26.5000000
2021-10-24 10:39:44.720520 , -12.0446941, -5.8069818, -57.5837059, 0.1381836, -0.1960449, 1.0283203, 3.5365854, -2.3780488, -0.9451220, -97.6250000, -183.0000000, -30.3750000
2021-10-24 10:39:44.926188 , -11.4414482, -6.6939165, -58.6453913, 0.1527100, -0.1735840, 1.0196533, 1.5243902, -7.2865854, 0.0609756, -94.6250000, -179.3750000, -32.2500000
2021-10-24 10:39:45.131674 , -11.0206404, -7.5462752, -59.7356896, 0.1631470, -0.1605835, 1.0080566, -2.5304878, -7.8658537, -0.3353659, -92.5000000, -182.3750000, -34.7500000
2021-10-24 10:39:45.337657 , -10.3966686, -8.4040367, -60.5375366, 0.1862183, -0.1591797, 1.0147705, 2.8658537, -6.3109756, -1.0365854, -93.2500000, -178.7500000, -35.7500000
2021-10-24 10:39:45.542999 , -9.5092429, -8.9616672, -61.4929455, 0.1912231, -0.1358643, 1.0271606, 4.4207317, -3.8414634, -1.2500000, -89.1250000, -176.3750000, -41.5000000
2021-10-24 10:39:45.751053 , -8.9717878, -9.5861249, -62.1594409, 0.2034302, -0.1273193, 0.9857788, 0.7012195, -2.1036585, -1.3109756, -91.1250000, -178.2500000, -37.6250000
2021-10-24 10:39:45.957131 , -8.8764562, -9.6349229, -62.4372820, 0.1875000, -0.1271973, 1.0269165, -6.6768293, 1.3109756, 1.6158537, -93.5000000, -178.8750000, -35.0000000
2021-10-24 10:39:46.162575 , -9.3633989, -9.3959974, -62.5688679, 0.1816406, -0.1696167, 1.0222168, -7.4695122, 5.3658537, 3.5060976, -94.5000000, -183.6250000, -34.3750000
2021-10-24 10:39:46.368625 , -10.6496338, -8.4528696, -62.3160241, 0.1279297, -0.1900635, 1.0088501, -19.9695122, 8.0792683, 7.5304878, -98.5000000, -190.5000000, -24.6250000
2021-10-24 10:39:46.573875 , -11.7328701, -7.6645278, -61.5407289, 0.0980225, -0.2265625, 0.9660034, -10.4573171, 2.2256098, 6.5853659, -107.0000000, -193.5000000, -12.1250000
2021-10-24 10:39:46.779838 , -13.4029365, -2.8587002, -61.7743431, 0.0604248, -0.2791748, 0.9677734, -14.6951220, 19.3902439, 14.0853659, -120.0000000, -197.5000000, -8194.3750000
2021-10-24 10:39:46.985077 , -14.8271410, -2.1146892, -60.1866384, 0.0734253, -0.3627930, 1.0422974, -8.4756098, 14.0853659, -2.0731707, -138.1250000, -194.2500000, 9.1250000
2021-10-24 10:39:47.191404 , -15.4888097, 0.0809707, -57.3163880, -0.0579224, -0.3441772, 1.0675049, -9.5731707, 10.2743902, 6.4329268, -154.5000000, -175.8750000, 15.7500000
2021-10-24 10:39:47.396874 , -16.0861555, 1.5192315, -54.2975653, -0.0462646, -0.3852539, 1.0926514, -8.9024390, 6.3109756, -4.8475610, -166.1250000, -152.0000000, 21.2500000
2021-10-24 10:39:47.602968 , -16.1324343, 2.8896576, -51.0651799, -0.0993042, -0.3642578, 1.0640259, -3.6890244, -2.7439024, 0.6097561, -166.1250000, -139.6250000, 22.3750000
2021-10-24 10:39:47.808983 , -16.8229454, 2.7800627, -47.9951708, -0.0536499, -0.3781128, 1.0103760, -7.8353659, -15.6402439, 2.1036585, -164.3750000, -130.6250000, 16.5000000
2021-10-24 10:39:48.014322 , -17.5235794, 2.4036258, -45.0422356, -0.0204468, -0.4053345, 0.9984131, -2.0121951, -10.0304878, -0.9756098, -164.5000000, -114.7500000, 5.8750000
2021-10-24 10:39:48.220158 , -16.7458496, 4.7904169, -46.0753134, -0.0414429, -0.3854370, 1.1281738, 1.4939024, 11.3109756, -4.0853659, -165.5000000, -109.7500000, -16383.8750000
2021-10-24 10:39:48.426436 , -17.5502886, 3.6154398, -43.0722608, 0.0142822, -0.4142456, 1.0087891, 0.3963415, -8.7195122, 8.3231707, -157.1250000, -104.6250000, -9.8750000
2021-10-24 10:39:48.631811 , -18.1550657, 2.6940824, -41.0946226, 0.0289917, -0.3901367, 1.0168457, -2.2560976, -0.6097561, 0.9146341, -157.0000000, -105.2500000, -11.0000000
2021-10-24 10:39:48.838149 , -13.2975483, -1.5445245, -40.3567304, 0.0293579, -0.4060669, 1.0064087, -6.1585366, -1.0670732, -0.4268293, -159.1250000, -112.6250000, 24574.8750000
2021-10-24 10:39:49.043176 , -10.4313396, -2.1431330, -40.0127257, -0.0233154, -0.3995361, 1.0597534, 2.3475610, 6.5548780, -0.0609756, -160.2500000, -117.7500000, 8196.1250000
2021-10-24 10:39:49.249488 , -11.9700156, -2.0278464, -41.4064776, 0.0179443, -0.4314575, 1.1069946, 18.6585366, 1.5548780, -14.9390244, -150.5000000, -150.2500000, 17.1250000
2021-10-24 10:39:49.455120 , -11.7112438, 0.4518370, -41.5033715, -0.0356445, -0.3186035, 1.0753174, 8.3231707, -15.6097561, 5.0000000, -128.1250000, -175.5000000, -32763.6250000
2021-10-24 10:39:49.660631 , -13.1362695, -2.0786215, -44.6730727, 0.0792236, -0.3005371, 0.9702148, 1.2500000, -23.4146341, 5.5182927, -111.6250000, -186.0000000, -7.8750000
2021-10-24 10:39:49.866611 , -12.8152976, -4.0838892, -48.2395170, 0.1176758, -0.2344360, 0.9588013, 12.1341463, -14.3597561, -4.1463415, -101.3750000, -185.3750000, -18.8750000
2021-10-24 10:39:50.071892 , -12.4745918, -6.3463769, -51.3103732, 0.1947632, -0.2146606, 0.9817505, 5.3353659, -12.9268293, -3.8719512, -97.6250000, -185.3750000, -23.8750000
2021-10-24 10:39:50.278388 , -11.7985015, -6.9809805, -54.1779165, 0.1898804, -0.1919556, 1.0458374, 3.8109756, 5.4878049, -5.5182927, -93.3750000, -181.2500000, -27.1250000
2021-10-24 10:39:50.483812 , -11.0061580, -7.7228599, -56.0512234, 0.1968994, -0.1781006, 1.0354614, 6.8902439, 1.2804878, -0.8841463, -94.1250000, -179.2500000, -24.2500000
2021-10-24 10:39:50.690283 , -9.9943593, -9.0866145, -57.6824289, 0.2104492, -0.1394653, 0.9470215, 7.3780488, -7.5304878, -5.7926829, -94.1250000, -174.2500000, -31.0000000
2021-10-24 10:39:50.908148 , -9.1116229, -9.2213495, -58.6086020, 0.1978149, -0.1212769, 1.0496216, 2.5000000, 2.8048780, 1.5853659, -96.2500000, -174.1250000, -28.7500000
2021-10-24 10:39:51.132126 , -8.0637210, -9.9041068, -59.6236377, 0.2076416, -0.1094971, 1.0184326, 7.1341463, -5.3963415, -1.8292683, -94.6250000, -175.2500000, -32.7500000
2021-10-24 10:39:51.385938 , -6.9135358, -10.6007758, -60.4252147, 0.2178345, -0.0710449, 1.0089111, 4.8170732, -5.8841463, -0.1524390, -91.5000000, -168.6250000, -33.3750000
2021-10-24 10:39:51.610066 , -5.6543812, -11.2123473, -61.1139334, 0.2238770, -0.0382080, 0.9507446, 4.6341463, -2.5609756, 0.9451220, -93.1250000, -170.3750000, -37.3750000
2021-10-24 10:39:51.826084 , -5.6898774, -11.2754548, -61.4799182, 0.2143555, -0.0532227, 0.9403687, -11.7378049, 4.7865854, 2.3475610, -95.2500000, -174.6250000, -30.0000000
2021-10-24 10:39:52.031214 , -6.4235131, -10.6862921, -61.2354917, 0.1966553, -0.1262817, 0.9944458, -7.3780488, 10.7012195, 6.3719512, -99.7500000, -178.2500000, -25.1250000
2021-10-24 10:39:52.246229 , -7.1774569, -9.9956095, -61.0308639, 0.1889648, -0.1570435, 1.0018311, -3.9634146, 13.2621951, 4.7560976, -101.3750000, -180.5000000, -23.3750000
2021-10-24 10:39:52.451351 , -7.9337725, -8.7312814, -60.3912206, 0.1118774, -0.1598511, 1.0349121, -8.1097561, 9.1158537, 2.2865854, -108.5000000, -175.2500000, -17.0000000
2021-10-24 10:39:52.705116 , -7.4679900, -7.1660674, -59.6037344, 0.0674438, -0.1433716, 1.0403442, 8.6280488, 10.5487805, -2.8963415, -116.2500000, -172.3750000, -9.1250000
2021-10-24 10:39:52.929599 , -8.1297111, -3.1419165, -60.0309913, 0.0498657, -0.1434937, 0.9667358, -6.7682927, 13.0487805, 1.8902439, -123.3750000, -169.6250000, -8196.6250000
2021-10-24 10:39:53.144797 , -8.3956511, -1.5647537, -60.3605217, 0.0574951, -0.1903076, 1.0402222, 1.2195122, 0.7012195, -2.1951220, -135.2500000, -155.0000000, -24575.3750000
2021-10-24 10:39:53.354175 , -8.7432684, -0.6216073, -57.6500740, 0.0018921, -0.1528320, 1.0258789, -12.4695122, 6.9512195, -3.4451220, -141.6250000, -152.1250000, 8.8750000
2021-10-24 10:39:53.559634 , -9.5902160, -0.0436570, -54.4071145, 0.0024414, -0.2054443, 1.0742188, -15.0000000, 1.1280488, 6.6463415, -147.1250000, -143.1250000, 11.3750000
2021-10-24 10:39:53.765657 , -10.0411758, 0.8444056, -51.9493010, -0.0003662, -0.2435913, 1.0322876, 0.3353659, 12.8658537, -8.8109756, -156.1250000, -134.7500000, 8.1250000
2021-10-24 10:39:53.971505 , -11.1173344, 1.2579460, -48.7284187, -0.0312500, -0.2638550, 1.0648804, -13.8719512, -4.5426829, 6.7682927, -154.1250000, -123.8750000, 13.1250000
2021-10-24 10:39:54.177565 , -11.5533947, 1.3301312, -45.8697206, -0.0076294, -0.2744141, 1.0223389, -0.7317073, -2.1951220, -3.4756098, -160.6250000, -112.5000000, 12.0000000
2021-10-24 10:39:54.383487 , -12.0279593, 1.8217312, -43.3522758, -0.0541382, -0.2590942, 0.9759521, -2.3780488, -3.8109756, 0.7926829, -160.2500000, -111.6250000, 8.2500000
2021-10-24 10:39:54.589247 , -12.2635210, 2.7483421, -43.6263676, 0.0100708, -0.2849731, 1.0267334, -5.4268293, -0.5487805, 1.4939024, -161.6250000, -105.6250000, -24574.0000000
2021-10-24 10:39:54.795305 , -9.7053243, 0.2358045, -42.9771020, -0.0242310, -0.3137207, 1.0018921, -12.0731707, 0.8231707, 5.9756098, -163.7500000, -107.7500000, 16386.0000000
2021-10-24 10:39:55.001360 , -10.8927997, 1.5190293, -43.0901880, -0.0051270, -0.3201904, 1.0173950, -3.7804878, -3.1707317, 3.0792683, -161.6250000, -104.1250000, -16388.3750000
2021-10-24 10:39:55.207710 , -12.6154536, 1.2314715, -41.3424159, -0.0096436, -0.3480835, 1.0284424, -3.3231707, -3.5060976, -0.5487805, -159.3750000, -110.5000000, -9.1250000
2021-10-24 10:39:55.413603 , -13.3779206, 1.7110755, -41.5839227, 0.0392456, -0.3602905, 1.0231934, -4.5731707, -10.2743902, 2.1341463, -153.0000000, -112.2500000, -8200.0000000
2021-10-24 10:39:55.619497 , -14.4635000, 0.8073400, -40.4428439, 0.0595703, -0.3511963, 1.0530396, -1.7987805, 0.9451220, 0.2743902, -155.6250000, -114.0000000, -9.7500000
2021-10-24 10:39:55.825272 , -10.8812123, -2.0962977, -39.8207932, 0.0713501, -0.3814087, 1.0850220, -0.7012195, 2.5914634, 4.6341463, -153.5000000, -114.5000000, 8198.7500000
2021-10-24 10:39:56.031407 , -11.8207252, -2.6211358, -40.1467646, 0.0615234, -0.3354492, 1.0598145, 10.8231707, -4.6036585, -5.8231707, -144.0000000, -129.7500000, 16.7500000
2021-10-24 10:39:56.237859 , -11.9514722, -4.0631285, -42.2257325, 0.0789185, -0.2557373, 1.0765991, 10.5182927, -16.5853659, -1.7073171, -122.0000000, -157.6250000, 14.7500000
2021-10-24 10:39:56.444107 , -10.6400609, -2.3993391, -42.7766363, 0.1077881, -0.2477417, 1.0889893, 13.8414634, -16.5548780, -1.6463415, -105.1250000, -165.6250000, -8197.5000000
2021-10-24 10:39:56.650413 , -10.6416619, -5.4250447, -46.9740830, 0.1839600, -0.1859741, 0.8769531, 5.7621951, -18.1707317, -4.7560976, -92.3750000, -172.7500000, -20.2500000
2021-10-24 10:39:56.856199 , -9.4953015, -7.8711579, -51.1126846, 0.2634888, -0.1571655, 0.9845581, 12.5304878, -10.7012195, -5.1524390, -84.5000000, -177.3750000, -32.6250000
2021-10-24 10:39:57.062090 , -8.8560133, -9.6529204, -55.0104743, 0.3114624, -0.1288452, 0.9614258, -1.7987805, 2.6829268, -10.7621951, -81.6250000, -175.6250000, -40.6250000
2021-10-24 10:39:57.268372 , -8.2393326, -11.5010391, -57.6150270, 0.3317871, -0.1395264, 0.9733887, 5.2743902, -4.2682927, -0.3353659, -80.0000000, -175.5000000, -40.3750000
2021-10-24 10:39:57.474604 , -6.9627439, -12.5905181, -60.0594725, 0.3025513, -0.0820923, 0.9486084, 6.6158537, -2.2256098, -3.2926829, -78.7500000, -171.7500000, -46.6250000
2021-10-24 10:39:57.680156 , -6.0219671, -13.9244087, -61.5288488, 0.3327026, -0.0712280, 0.9763184, 4.1463415, -5.3963415, 0.3048780, -82.0000000, -167.8750000, -44.2500000
2021-10-24 10:39:57.886171 , -5.1012084, -15.0538144, -63.0993936, 0.3570557, -0.0581665, 0.9625244, 4.0853659, 0.0304878, -2.4695122, -78.3750000, -167.1250000, -42.2500000
2021-10-24 10:39:58.092082 , -3.7605705, -15.8576089, -64.5232107, 0.3345947, -0.0300293, 0.9106445, 9.5426829, 0.7317073, -3.5060976, -78.7500000, -163.1250000, -50.1250000
2021-10-24 10:39:58.297703 , -3.3387271, -16.0457142, -65.4968408, 0.3254395, -0.0210571, 0.9790649, -4.1463415, 1.9817073, 2.9268293, -78.8750000, -171.2500000, -47.0000000
2021-10-24 10:39:58.503959 , -3.1394306, -16.3398844, -66.1884133, 0.3237915, -0.0399780, 0.9259644, -1.0060976, 4.4817073, 1.6768293, -78.8750000, -170.7500000, -43.0000000
2021-10-24 10:39:58.709818 , -3.9114148, -16.0694183, -66.3868649, 0.3015747, -0.0730591, 0.9652100, -10.5487805, 7.3780488, 4.4207317, -80.6250000, -172.2500000, -39.7500000
2021-10-24 10:39:58.915746 , -4.3600525, -15.7878169, -66.4815714, 0.2919312, -0.1019287, 1.0106812, -1.2195122, 4.5121951, 1.2500000, -83.5000000, -175.3750000, -37.2500000
2021-10-24 10:39:59.122240 , -5.3127670, -15.0097368, -65.9499357, 0.2443848, -0.1127319, 0.9540405, -7.9573171, 10.0914634, 3.5365854, -88.5000000, -173.7500000, -28.7500000
2021-10-24 10:39:59.327727 , -6.4517273, -13.9350016, -64.9626004, 0.2242432, -0.1472778, 1.0358887, -9.5731707, 11.0670732, 3.8414634, -98.2500000, -177.1250000, -25.5000000
2021-10-24 10:39:59.534030 , -7.5393802, -12.1688638, -63.6566625, 0.1611328, -0.1621704, 0.9727783, -7.8048780, 16.9817073, 5.2134146, -106.7500000, -182.8750000, -15.1250000
2021-10-24 10:39:59.740245 , -7.5568811, -10.2130830, -61.7860790, 0.1079102, -0.1629028, 1.1051636, 4.5731707, 11.2804878, 6.0670732, -115.0000000, -172.6250000, -7.1250000
2021-10-24 10:39:59.946240 , -4.0888345, -6.9877831, -61.6126105, 0.0709839, -0.1813354, 0.9981689, 4.5731707, 18.7804878, 5.4573171, -129.8750000, -161.7500000, 16387.2500000
2021-10-24 10:40:00.152354 , -4.9188577, -4.6943611, -58.1170365, 0.0150757, -0.1495361, 1.0853882, -2.0121951, 19.4817073, 1.8292683, -145.5000000, -149.6250000, 6.8750000
2021-10-24 10:40:00.358341 , -5.9125864, -2.6550701, -54.0448629, -0.0223389, -0.1827393, 1.0543823, -1.0060976, 15.7926829, -3.2621951, -160.3750000, -125.7500000, 2.6250000
2021-10-24 10:40:00.563890 , -6.2287094, -0.0843774, -54.3080147, -0.0900269, -0.1644287, 1.0511475, 1.7378049, -4.5731707, -2.9573171, -164.0000000, -106.8750000, -8194.5000000
2021-10-24 10:40:00.769559 , -7.6597218, 0.3522381, -49.5592125, -0.0656128, -0.2011719, 0.9832764, -6.1280488, -7.7134146, -0.4878049, -161.0000000, -97.8750000, -12.8750000
2021-10-24 10:40:00.975678 , -8.4101617, 0.3642662, -46.4192153, -0.0285645, -0.2047729, 1.1098633, -1.9817073, -2.2256098, -11.5243902, -159.7500000, -99.0000000, -18.3750000
2021-10-24 10:40:01.181682 , -10.0030918, -0.0434586, -43.5639229, -0.0042114, -0.2672119, 1.0287476, -3.5365854, -6.3109756, -0.0304878, -158.5000000, -101.0000000, -25.1250000
2021-10-24 10:40:01.387974 , -10.6888251, -0.9116541, -41.1952934, -0.0019531, -0.2221680, 1.0120239, -1.8292683, -18.5365854, 3.7500000, -152.5000000, -100.1250000, -25.8750000
2021-10-24 10:40:01.594060 , -10.5645817, -2.7470723, -39.8060662, 0.0927734, -0.2237549, 1.0234985, 12.0731707, -18.2317073, -1.3109756, -150.7500000, -102.1250000, -30.8750000
2021-10-24 10:40:01.800141 , -11.0100812, -3.2520566, -39.1096471, 0.0994263, -0.2234497, 1.0090942, 1.3414634, 3.3841463, 0.4573171, -141.3750000, -97.8750000, -42.1250000
2021-10-24 10:40:02.006535 , -11.3598853, -3.7662383, -38.4337555, 0.0959473, -0.2167358, 1.0195312, -0.7012195, -0.1219512, 0.2743902, -145.7500000, -97.8750000, -45.5000000
2021-10-24 10:40:02.212576 , -11.6256607, -4.0918839, -38.0140300, 0.0936890, -0.2174683, 1.0241089, -1.5853659, 0.1524390, -0.0304878, -143.3750000, -99.1250000, -39.2500000
2021-10-24 10:40:02.418395 , -11.8699580, -4.1768232, -37.8385372, 0.0890503, -0.2211914, 1.0255127, -2.2560976, 1.9207317, 0.3048780, -144.2500000, -103.7500000, -34.5000000
2021-10-24 10:40:02.624458 , -12.0890501, -4.2707889, -37.3991850, 0.0812378, -0.2310181, 1.0294800, -0.0304878, -0.1524390, -0.1219512, -144.2500000, -97.8750000, -35.5000000
2021-10-24 10:40:02.830798 , -12.2486622, -4.2213148, -36.9752585, 0.0772705, -0.2265015, 1.0260620, -0.7317073, 1.4634146, 0.1219512, -149.0000000, -99.6250000, -35.6250000
2021-10-24 10:40:03.036824 , -12.3349235, -4.2579495, -36.6581601, 0.0764771, -0.2264404, 1.0255737, -0.1524390, -0.4878049, -0.0609756, -149.1250000, -100.0000000, -36.2500000
2021-10-24 10:40:03.242581 , -12.4317694, -4.1771483, -36.5293010, 0.0758667, -0.2291260, 1.0332642, -1.0060976, 1.0975610, 0.3353659, -145.7500000, -100.7500000, -32.6250000
2021-10-24 10:40:03.449366 , -12.4835706, -4.1308340, -36.3534196, 0.0726929, -0.2299805, 1.0286865, 0.0609756, 0.1219512, 0.2439024, -148.0000000, -100.5000000, -35.0000000
2021-10-24 10:40:03.667519 , -12.4852286, -3.7097196, -35.8667751, 0.0515747, -0.2243652, 1.0320435, -0.3353659, 1.8597561, 5.4268293, -148.6250000, -100.7500000, -27.1250000
2021-10-24 10:40:03.892536 , -12.6154740, -3.7309822, -35.7813586, 0.0677490, -0.2296143, 1.0241699, -1.9207317, -0.4268293, -0.1219512, -150.1250000, -103.3750000, -26.2500000
2021-10-24 10:40:04.107649 , -13.0335735, -3.6742953, -35.3508362, 0.0811157, -0.2379761, 1.0360107, -7.0426829, 4.1158537, 0.7621951, -157.2500000, -103.6250000, -18.5000000
2021-10-24 10:40:04.331450 , -10.9458065, 0.4035219, -36.1984302, -0.0039673, -0.2559814, 1.0515137, 23.1097561, 6.0060976, -2.0426829, -160.8750000, -89.2500000, -16390.1250000
2021-10-24 10:40:04.567149 , -10.7329508, 0.0045469, -32.9224565, 0.0486450, -0.2515259, 1.0010986, -0.3048780, -1.4329268, -13.0182927, -187.8750000, -64.3750000, 38.5000000
2021-10-24 10:40:04.772007 , -8.2595638, 1.5068876, -31.5831789, -0.0429077, -0.1476440, 0.9867554, 13.9024390, 11.7682927, -22.8048780, -201.1250000, -84.1250000, 107.5000000
2021-10-24 10:40:05.007241 , -9.7847895, 0.5417850, -34.2361883, 0.0025635, -0.1723633, 0.9512939, -3.9939024, 4.6341463, -25.1829268, -184.7500000, -185.7500000, 159.0000000
2021-10-24 10:40:05.212118 , -11.6322147, -1.5775382, -39.2723944, 0.0129395, -0.2031860, 0.9967041, 3.8719512, 3.4451220, -22.0426829, -144.3750000, -271.7500000, 130.5000000
2021-10-24 10:40:05.448742 , -11.6038852, -3.3510440, -46.4449727, -0.0201416, -0.1500244, 1.0185547, 9.9390244, -3.8414634, -39.7256098, -105.7500000, -297.2500000, 68.0000000
2021-10-24 10:40:05.653947 , -10.5611412, -3.2025522, -52.9396964, -0.0376587, -0.1160278, 1.0177002, 10.2439024, 5.9451220, -24.0853659, -85.7500000, -293.7500000, 19.1250000
2021-10-24 10:40:05.869180 , -8.2763713, -0.0462611, -55.0017172, -0.0158691, -0.0889282, 1.0225830, 11.0975610, 7.5609756, -30.4573171, -73.8750000, -272.5000000, -8204.1250000
2021-10-24 10:40:06.075096 , -7.8255117, -0.1928421, -60.9413451, -0.0108032, -0.1107178, 0.9953003, -0.6402439, -4.7560976, -22.5304878, -57.8750000, -258.7500000, -42.5000000
2021-10-24 10:40:06.279911 , -7.1000432, 0.5045919, -65.7672404, -0.0194092, -0.1214600, 1.0191650, 6.1890244, 0.0000000, -22.3170732, -50.2500000, -239.6250000, -72.8750000
2021-10-24 10:40:06.486254 , -6.3899095, 1.1316916, -69.6194121, -0.0125732, -0.1112671, 0.9953003, 6.5243902, -1.6158537, -24.2682927, -41.1250000, -209.5000000, -96.2500000
2021-10-24 10:40:06.692670 , -6.0156614, 1.2487186, -71.8494569, -0.0213013, -0.0966187, 1.0112915, 0.1219512, -7.9268293, -22.5914634, -44.2500000, -181.1250000, -127.3750000
2021-10-24 10:40:06.898684 , -6.0885885, 0.2487405, -72.8012897, 0.0134277, -0.1029053, 1.0241089, -1.7378049, -7.2865854, -23.4146341, -53.7500000, -148.2500000, -147.5000000
2021-10-24 10:40:07.104841 , -6.0493542, -1.3947663, -73.0792116, 0.0064087, -0.0862427, 1.0203857, 4.1463415, -6.4634146, -30.8536585, -69.7500000, -118.2500000, -158.6250000
2021-10-24 10:40:07.311037 , -6.6293603, -2.8465471, -72.2407719, -0.0093384, -0.0886841, 1.0461426, 0.4268293, 0.0304878, -17.8353659, -85.1250000, -96.3750000, -171.7500000
2021-10-24 10:40:07.517730 , -7.2770951, -4.2340335, -70.8890732, -0.0347900, -0.0741577, 1.0051270, 1.5548780, -2.4695122, -17.2256098, -105.6250000, -88.6250000, -177.6250000
2021-10-24 10:40:07.723868 , -7.7052596, -5.2996026, -69.0200528, -0.0173950, -0.0740356, 1.0232544, 2.0121951, -2.2560976, -4.2682927, -108.1250000, -87.5000000, -172.0000000
2021-10-24 10:40:07.929520 , -8.1053768, -5.6784737, -67.4514212, -0.0086670, -0.0835571, 1.0134277, -0.8536585, 2.3170732, -2.2256098, -107.1250000, -87.3750000, -174.5000000
2021-10-24 10:40:08.135685 , -8.0700168, -5.3006443, -66.1589493, -0.0309448, -0.0819702, 1.0189209, 0.5487805, 1.9512195, 0.6097561, -101.0000000, -90.2500000, -171.8750000
2021-10-24 10:40:08.341588 , -7.7071178, -3.8939854, -65.2565316, -0.0560303, -0.0705566, 1.0095215, -3.7500000, 3.5365854, 6.2804878, -86.5000000, -103.3750000, -157.8750000
2021-10-24 10:40:08.547688 , -6.9602099, -2.2734117, -64.4246683, -0.0526123, -0.0593262, 1.0140381, -2.7743902, 1.1280488, 18.0487805, -75.3750000, -128.6250000, -128.8750000
2021-10-24 10:40:08.753971 , -6.6831289, 0.1224228, -64.9729389, -0.0927734, -0.0842285, 0.9368896, -6.2804878, -1.5853659, 23.7195122, -58.3750000, -173.7500000, -97.0000000
2021-10-24 10:40:08.959845 , -6.0841470, 2.3020183, -65.6872753, -0.1008301, -0.0742798, 1.0139160, -0.0609756, 12.3475610, 33.5975610, -57.6250000, -218.0000000, -47.1250000
2021-10-24 10:40:09.166218 , -6.0172004, 2.6677019, -64.1512400, -0.0709229, -0.0864258, 1.0072021, -4.1768293, -0.7621951, 56.7682927, -86.2500000, -254.5000000, 31.5000000
2021-10-24 10:40:09.374124 , -6.4904216, 2.2839498, -60.9778706, 0.0354614, -0.1412354, 1.0350952, -8.4146341, -0.1829268, 48.9939024, -134.8750000, -227.7500000, 92.6250000
2021-10-24 10:40:09.580306 , -5.6533557, 4.2024072, -55.0140729, -0.0341797, -0.1214600, 0.9965210, -8.7804878, 5.1829268, 58.8109756, -182.1250000, -165.7500000, 106.0000000
2021-10-24 10:40:09.785964 , -6.1156175, 4.2451273, -48.6882795, -0.0087891, -0.1668701, 1.0721436, -20.9756098, -8.7804878, 55.6402439, -181.8750000, -129.6250000, 55.5000000
2021-10-24 10:40:09.991976 , -7.2180168, 3.8513721, -44.5741779, 0.0286865, -0.2176514, 1.0712891, -8.6585366, 6.6463415, 45.1219512, -160.0000000, -127.8750000, 15.0000000
2021-10-24 10:40:10.197704 , -8.2239547, 2.4567600, -43.4347758, 0.0189209, -0.2072144, 1.0283203, -3.6280488, -10.7926829, 33.8719512, -136.3750000, -144.2500000, -10.1250000
2021-10-24 10:40:10.403992 , -8.8973320, 1.4612300, -44.4506156, 0.0206299, -0.2323608, 1.0031128, 8.2621951, -5.1524390, 14.0243902, -123.2500000, -151.8750000, -16.8750000
2021-10-24 10:40:10.609919 , -9.0380239, 0.4429829, -46.0220262, 0.0350342, -0.1770020, 1.0275879, 1.0060976, -6.3414634, 5.4573171, -118.7500000, -156.0000000, -24.3750000
2021-10-24 10:40:10.815668 , -9.2763782, -0.4180072, -47.9167812, 0.0510864, -0.1792603, 1.0403442, -2.2560976, -4.4817073, 3.8414634, -112.7500000, -162.8750000, -29.5000000
2021-10-24 10:40:11.021574 , -9.8396654, -1.3802014, -49.8881348, 0.0759888, -0.1954346, 1.0079956, -4.4207317, -3.5365854, 3.1097561, -108.0000000, -169.1250000, -28.3750000
2021-10-24 10:40:11.227410 , -10.1733035, -2.1568220, -51.4818776, 0.0822754, -0.1976929, 1.0358276, -3.2012195, -3.2926829, 1.7987805, -109.2500000, -170.0000000, -32.1250000
2021-10-24 10:40:11.433014 , -10.1131395, -2.6337305, -52.8720012, 0.0784302, -0.1918945, 1.0338745, 2.1341463, -1.6768293, 2.0731707, -109.0000000, -173.5000000, -34.2500000
2021-10-24 10:40:11.638979 , -10.1968012, -3.1077848, -54.3165728, 0.0847778, -0.1946411, 1.0133667, 1.1280488, -1.4634146, 0.8231707, -104.2500000, -175.6250000, -32.6250000
2021-10-24 10:40:11.845086 , -10.8028930, -3.7716947, -55.2238008, 0.1123657, -0.2092896, 1.0216064, -6.6768293, -1.4329268, 3.6280488, -106.6250000, -176.6250000, -34.1250000
2021-10-24 10:40:12.051442 , -11.4681068, -4.0412475, -56.1713045, 0.0957031, -0.2327271, 1.0080566, -4.2682927, 0.7926829, -0.3353659, -106.1250000, -177.2500000, -34.1250000
2021-10-24 10:40:12.257889 , -11.7511311, -4.2666609, -57.0269834, 0.0849609, -0.2265015, 1.0802612, -4.5426829, -3.5975610, -0.5487805, -104.0000000, -177.0000000, -36.7500000
2021-10-24 10:40:12.463759 , -12.0626040, -4.5127074, -57.8463615, 0.0971069, -0.2357178, 1.0201416, -0.9146341, -0.8841463, 0.6097561, -101.6250000, -180.5000000, -34.1250000
2021-10-24 10:40:12.669620 , -12.6258180, -4.7878254, -58.2815314, 0.1031494, -0.2497559, 1.0074463, -3.1402439, -1.2500000, 2.9878049, -104.5000000, -183.2500000, -34.0000000
2021-10-24 10:40:12.875717 , -13.0075853, -4.9009530, -58.7172593, 0.1007080, -0.2510986, 1.0245972, -2.6524390, 0.0000000, 2.3475610, -103.5000000, -182.6250000, -35.5000000
2021-10-24 10:40:13.081547 , -12.9170743, -4.9217640, -59.0226252, 0.0947266, -0.2333374, 1.0761719, -1.0365854, -1.7682927, 6.2195122, -100.6250000, -183.3750000, -32.7500000
2021-10-24 10:40:13.288011 , -14.0855097, -5.7503051, -59.0806810, 0.1463013, -0.3065186, 0.9766235, -3.8414634, -2.9268293, 1.2500000, -103.1250000, -178.3750000, -29.0000000
2021-10-24 10:40:13.494011 , -14.3807754, -5.7264593, -59.6470376, 0.1044312, -0.2653198, 1.0500488, -6.2500000, 1.1890244, -6.5243902, -100.8750000, -177.1250000, -26.8750000
2021-10-24 10:40:13.700219 , -13.9495745, -5.7681179, -59.6859352, 0.1087036, -0.2520142, 1.0527344, 3.9024390, 0.8536585, -7.6524390, -105.6250000, -170.6250000, -24.3750000
2021-10-24 10:40:13.905698 , -13.2178885, -4.9562325, -58.9564613, 0.0731201, -0.2247314, 1.0068359, 7.7439024, 10.4268293, -6.3719512, -114.8750000, -160.5000000, -21.7500000
2021-10-24 10:40:14.111682 , -12.7244597, -4.1478991, -58.2064823, 0.0685425, -0.2142944, 1.0156250, 1.0975610, 14.9695122, -20.6402439, -124.1250000, -150.6250000, -14.0000000
2021-10-24 10:40:14.318215 , -12.2280397, -2.6257420, -60.5692627, 0.0615234, -0.2334595, 1.0010376, 2.2865854, -8.4756098, -40.3658537, -138.2500000, -133.7500000, -8199.6250000
2021-10-24 10:40:14.523885 , -11.0654303, -3.4406607, -57.6018747, 0.0708618, -0.1402588, 1.0474854, -6.0060976, -16.3414634, -29.5426829, -147.2500000, -129.0000000, 10.5000000
2021-10-24 10:40:14.729612 , -9.6369767, -1.9572471, -55.5588723, 0.0497437, -0.1603394, 0.9833984, -1.3109756, 18.7195122, -51.1585366, -172.2500000, -127.2500000, 45.3750000
2021-10-24 10:40:14.935674 , -9.1854021, -0.2553005, -53.6713394, 0.0169067, -0.1984253, 1.0083008, -7.8353659, 12.4085366, -28.0792683, -184.8750000, -156.5000000, 88.6250000
2021-10-24 10:40:15.141399 , -8.5804868, -0.2454653, -53.7126245, 0.0208130, -0.1989746, 1.0607910, 9.9695122, -2.4390244, -26.6463415, -163.5000000, -191.1250000, 103.6250000
2021-10-24 10:40:15.347701 , -8.7921408, -0.8182764, -56.1073877, 0.0052490, -0.1737061, 1.0404053, 5.2743902, 1.4634146, -27.7743902, -129.2500000, -238.7500000, 93.3750000
2021-10-24 10:40:15.554076 , -9.2328294, -1.4762700, -59.5559299, 0.0054321, -0.1740112, 1.0346680, 1.7987805, 2.5609756, -20.7317073, -96.0000000, -259.3750000, 53.6250000
2021-10-24 10:40:15.760265 , -8.8918499, 0.2451032, -60.7806404, -0.0279541, -0.1638184, 1.0117798, 1.1585366, -2.4695122, -21.0975610, -71.1250000, -258.6250000, -32765.5000000
2021-10-24 10:40:15.966184 , -8.8070826, -0.0249703, -65.2555970, 0.0116577, -0.1737061, 1.0386963, 3.2317073, -0.7926829, -23.2926829, -58.1250000, -231.7500000, -46.8750000
2021-10-24 10:40:16.172100 , -8.5647525, 0.3807946, -68.8914263, -0.0123291, -0.1621094, 1.0172729, 2.0426829, -2.6829268, -28.5060976, -50.8750000, -199.3750000, -91.0000000
2021-10-24 10:40:16.387912 , -8.5161815, 0.5311224, -70.0945266, -0.0246582, -0.1633301, 1.0128174, 3.6585366, 1.5853659, -23.6585366, -65.3750000, -158.0000000, -119.2500000
2021-10-24 10:40:16.612006 , -8.9892386, -0.7565935, -69.0274031, -0.0180664, -0.1632080, 1.0399780, 6.8292683, 2.3475610, -21.5853659, -95.7500000, -120.1250000, -140.3750000
2021-10-24 10:40:16.846455 , -10.4744484, -3.4018248, -66.0016222, 0.0020142, -0.1409302, 1.0370483, 4.7256098, 0.3048780, -31.2804878, -149.3750000, -88.7500000, -140.2500000
2021-10-24 10:40:17.051440 , -11.4647760, -4.3711042, -61.7435926, -0.0689697, -0.1151733, 1.0015869, 7.8353659, 3.9024390, -30.4573171, -194.3750000, -81.7500000, -125.7500000
2021-10-24 10:40:17.287004 , -11.8037204, -3.7645278, -57.4121296, -0.1307373, -0.0964355, 1.0355225, 3.9024390, 6.6463415, -23.7195122, -211.5000000, -89.1250000, -115.6250000
2021-10-24 10:40:17.492753 , -12.2089446, -2.7734088, -52.6491904, -0.1365967, -0.0946045, 0.9942017, -0.3963415, 3.4451220, 1.3109756, -205.2500000, -85.7500000, -119.2500000
2021-10-24 10:40:17.707685 , -11.8161675, -1.1663525, -48.8725862, -0.1517334, -0.0742798, 0.9874268, 0.0304878, 3.0792683, 21.3109756, -171.2500000, -85.5000000, -135.1250000
2021-10-24 10:40:17.931490 , -10.3634848, 1.1542544, -48.1990788, -0.1024780, -0.1095581, 1.0016479, -1.5548780, 0.2743902, 35.3353659, -103.1250000, -119.5000000, -130.1250000
2021-10-24 10:40:18.185161 , -9.0870804, 2.7560413, -50.5107862, -0.0634155, -0.1037598, 1.0041504, -4.6646341, -1.5853659, 35.6097561, -71.6250000, -169.8750000, -79.8750000
2021-10-24 10:40:18.409820 , -7.8873551, 4.7286278, -48.8198893, -0.0951538, -0.0736694, 0.9703369, -6.7073171, 6.9817073, 38.3841463, -79.5000000, -220.8750000, -24589.5000000
2021-10-24 10:40:18.624691 , -8.4722680, 4.2358804, -49.2030654, -0.0714111, -0.0999756, 1.0233154, -14.5121951, 4.0853659, 46.2500000, -120.7500000, -227.6250000, 55.1250000
2021-10-24 10:40:18.851165 , -8.0891797, 4.8680382, -45.3264531, -0.0516968, -0.1397705, 1.0443115, -11.2500000, 1.2804878, 48.1097561, -183.3750000, -161.0000000, 76.5000000
2021-10-24 10:40:19.063201 , -8.2875089, 4.7940627, -41.0262907, -0.0282593, -0.1830444, 1.0299683, -9.2073171, -0.9756098, 42.0731707, -182.1250000, -123.5000000, 26.5000000
2021-10-24 10:40:19.265110 , -8.4894538, 4.7438325, -40.0017582, -0.0235596, -0.1970215, 0.9891968, -1.6768293, 0.4878049, 24.4207317, -164.7500000, -120.7500000, -16386.0000000
2021-10-24 10:40:19.467089 , -8.8181858, 3.8556294, -39.3299391, 0.0000000, -0.1793823, 1.0158081, -1.0975610, 0.4268293, 18.0487805, -153.6250000, -130.7500000, -14.6250000
2021-10-24 10:40:19.671852 , -9.0596098, 2.8127725, -39.9976117, -0.0003052, -0.1610107, 1.0231934, -4.3292683, -5.3658537, 12.9573171, -139.6250000, -139.8750000, -19.8750000
2021-10-24 10:40:19.878214 , -9.1969881, 2.3370043, -41.0634546, -0.0157471, -0.1614990, 1.0087280, -2.8048780, -2.6829268, 13.1707317, -135.0000000, -147.1250000, -25.2500000
2021-10-24 10:40:20.084172 , -9.2949827, 1.5636317, -42.5248703, 0.0131226, -0.1636353, 1.0407715, -3.6890244, -4.0243902, 11.8902439, -127.7500000, -152.7500000, -28.5000000
2021-10-24 10:40:20.290033 , -9.9559211, 0.9093953, -44.2379664, 0.0187378, -0.2025146, 0.9992065, -4.2987805, -3.5975610, 11.6768293, -122.6250000, -160.5000000, -29.2500000
2021-10-24 10:40:20.496209 , -10.6079383, -0.3516280, -46.1281618, 0.0824585, -0.2219849, 1.0493774, -5.2134146, -4.4207317, 11.1280488, -116.6250000, -166.8750000, -32.2500000
2021-10-24 10:40:20.701497 , -10.5418063, -0.9339061, -48.3260658, 0.0482178, -0.1966553, 1.0275879, 1.2804878, -3.8109756, 4.4207317, -108.6250000, -165.7500000, -36.2500000
2021-10-24 10:40:20.907700 , -10.9507680, -2.1535901, -50.1908607, 0.0948486, -0.2190552, 0.9963989, -1.2500000, -7.5000000, 3.4451220, -109.3750000, -170.8750000, -37.1250000
2021-10-24 10:40:21.112933 , -11.6747919, -2.8035192, -51.9041338, 0.0850830, -0.2507324, 1.0404663, -3.9024390, -4.8475610, 5.3963415, -105.8750000, -176.0000000, -36.8750000
2021-10-24 10:40:21.319225 , -12.2970033, -3.2603704, -53.7516802, 0.1216431, -0.2672729, 1.0428467, -1.3719512, 5.8536585, 1.7682927, -103.1250000, -179.0000000, -38.0000000
2021-10-24 10:40:21.524464 , -12.5356673, -3.6257079, -54.9793891, 0.0776367, -0.2308350, 1.0179443, -2.7743902, -5.0914634, 6.2195122, -101.1250000, -178.5000000, -37.3750000
2021-10-24 10:40:21.729870 , -12.9811119, -4.0320341, -55.8982253, 0.1027832, -0.2581177, 1.0390015, -2.8048780, -1.3109756, 4.2682927, -104.7500000, -179.7500000, -36.7500000
2021-10-24 10:40:21.935129 , -13.0565015, -4.5560204, -57.0499255, 0.1140747, -0.2450562, 1.0360718, -0.6707317, -1.1280488, -3.5670732, -103.3750000, -178.2500000, -38.7500000
2021-10-24 10:40:22.140620 , -13.6400434, -4.8544534, -57.6765702, 0.1030273, -0.2767334, 1.0124512, -2.2256098, -1.5853659, -0.6097561, -105.1250000, -178.3750000, -37.8750000
2021-10-24 10:40:22.346453 , -13.7351084, -5.4157907, -58.5546757, 0.1294556, -0.2482300, 1.0259399, -3.0487805, 0.1829268, -9.5731707, -104.0000000, -174.3750000, -35.1250000
2021-10-24 10:40:22.552031 , -13.7509626, -5.4428278, -58.9248372, 0.0985107, -0.2520752, 1.0367432, -1.4634146, 0.8841463, -8.6890244, -108.1250000, -174.2500000, -29.7500000
2021-10-24 10:40:22.758413 , -13.7959397, -5.6232496, -58.9904470, 0.1115723, -0.2636719, 1.0447998, 0.5182927, -0.7012195, -4.2378049, -105.8750000, -172.3750000, -26.0000000
2021-10-24 10:40:22.963730 , -13.9666414, -6.0256965, -58.4780980, 0.1337891, -0.2688599, 1.0258179, -0.0914634, -0.3963415, -4.7256098, -110.5000000, -162.0000000, -25.0000000
2021-10-24 10:40:23.169731 , -13.4254969, -5.9344773, -57.9068908, 0.1177979, -0.2476196, 1.0432129, 6.7987805, 6.2195122, -13.5365854, -118.3750000, -154.3750000, -23.1250000
2021-10-24 10:40:23.375232 , -13.1227160, -5.9204611, -56.6494204, 0.1093140, -0.2422485, 0.9899902, 5.4268293, 4.2073171, -16.3109756, -129.0000000, -146.3750000, -16.1250000
2021-10-24 10:40:23.581004 , -6.6846585, -5.4772148, -57.7962178, 0.0620728, -0.1944580, 1.0350342, 11.6463415, 10.3048780, -20.4573171, -143.6250000, -131.1250000, 32765.6250000
2021-10-24 10:40:23.786522 , -6.2676269, -5.3143904, -55.0107107, 0.0913696, -0.1390991, 1.0631714, 5.4573171, -2.0731707, -22.2560976, -154.2500000, -132.0000000, 17.3750000
2021-10-24 10:40:23.992077 , -6.3718847, -4.2355116, -52.6580746, 0.0065308, -0.1461792, 0.9843750, -1.5548780, -6.5243902, -14.6036585, -160.0000000, -144.8750000, 37.1250000
2021-10-24 10:40:24.198307 , -5.8654650, -3.6925196, -52.6648642, 0.0596313, -0.1262817, 1.0441284, 6.1585366, 4.2682927, -26.6158537, -149.7500000, -168.2500000, 53.0000000
2021-10-24 10:40:24.403663 , -6.0719479, -4.0230641, -56.0653332, 0.0319824, -0.1260376, 0.9835205, 3.4756098, -5.6097561, -38.5975610, -114.0000000, -209.7500000, 35.2500000
2021-10-24 10:40:24.610033 , -6.0283576, -2.1291246, -57.6476174, 0.0125122, -0.0842285, 1.0305176, -7.8658537, -8.5975610, -28.9329268, -88.1250000, -229.5000000, -32766.3750000
2021-10-24 10:40:24.815504 , -6.0144727, -2.5122554, -62.0422495, 0.0744629, -0.1146240, 1.0352783, -2.5914634, -0.8536585, -35.0609756, -76.2500000, -204.5000000, -42.8750000
2021-10-24 10:40:25.021356 , -5.5687696, -1.8779632, -65.3575424, 0.0134888, -0.1005249, 0.9854736, 3.1097561, 2.3475610, -44.4817073, -74.6250000, -168.6250000, -82.6250000
2021-10-24 10:40:25.227693 , -5.5542575, -2.7733920, -65.6831950, 0.0262451, -0.0766602, 1.0655518, 2.0731707, 0.2439024, -40.4268293, -98.8750000, -128.6250000, -108.0000000
2021-10-24 10:40:25.433982 , -6.4667885, -4.0466428, -63.3046008, -0.0029907, -0.0815430, 1.0502930, 1.2195122, -1.0975610, -25.0000000, -131.5000000, -108.0000000, -108.0000000
2021-10-24 10:40:25.639351 , -7.4925984, -5.7724779, -59.8089383, 0.0277100, -0.0993652, 0.9839478, 8.3841463, -5.2439024, -24.4512195, -162.1250000, -99.0000000, -101.1250000
2021-10-24 10:40:25.845479 , -7.6296224, -6.1676004, -56.0684909, -0.0305176, -0.0447998, 0.9888306, 7.8353659, -4.1158537, -20.2134146, -184.6250000, -97.5000000, -97.2500000
2021-10-24 10:40:26.051706 , -7.0600418, -5.7848147, -53.1460105, -0.0289307, -0.0254517, 0.9893799, 14.1768293, 7.9878049, -29.4817073, -198.3750000, -97.2500000, -98.6250000
2021-10-24 10:40:26.257196 , -6.2090688, -4.3538238, -50.8419544, -0.0963135, 0.0107422, 0.9555664, 9.5426829, 9.5426829, -36.2195122, -207.5000000, -100.2500000, -97.0000000
2021-10-24 10:40:26.463468 , -6.0820933, -3.4173044, -46.9367936, -0.0941162, 0.0159302, 0.9779663, -1.7378049, -1.3109756, 0.1219512, -208.6250000, -100.0000000, -95.8750000
2021-10-24 10:40:26.669386 , -5.8471118, -2.6822947, -43.4882290, -0.0785522, 0.0084229, 0.9792480, -0.3353659, -2.0121951, 1.3109756, -211.0000000, -99.0000000, -98.0000000
2021-10-24 10:40:26.875659 , -5.4555688, -1.7008578, -40.6592002, -0.0858765, 0.0101318, 0.9754028, -1.4024390, -0.4878049, 5.2134146, -203.1250000, -100.0000000, -101.0000000
2021-10-24 10:40:27.081749 , -5.1158223, -1.2040080, -38.2525058, -0.0566406, -0.0009766, 0.9851074, -2.5914634, -2.7439024, 8.6585366, -196.8750000, -101.7500000, -98.7500000
2021-10-24 10:40:27.286878 , -4.6965447, -0.6071945, -36.2650044, -0.0543823, -0.0023193, 0.9902344, -0.9451220, 0.7317073, 6.5243902, -192.2500000, -96.7500000, -99.0000000
2021-10-24 10:40:27.493116 , -4.1598621, 0.3144577, -34.7574341, -0.0775146, -0.0003662, 0.9759521, -1.3109756, 0.9146341, 8.6585366, -182.7500000, -97.6250000, -100.3750000
2021-10-24 10:40:27.698714 , -3.6039409, 1.0385287, -33.5516670, -0.0603027, -0.0052490, 0.9965210, -2.3170732, 2.1036585, 16.5243902, -161.6250000, -95.2500000, -105.3750000
2021-10-24 10:40:27.905036 , -2.5111328, 1.4341787, -33.1656778, -0.0245972, 0.0006104, 1.0039673, -1.3414634, -0.2134146, 24.7865854, -142.5000000, -107.8750000, -105.0000000
2021-10-24 10:40:28.111259 , -1.2219300, 2.2632446, -33.9543662, -0.0225220, -0.0003662, 0.9829712, -0.9756098, 3.9634146, 21.9817073, -119.2500000, -114.1250000, -97.0000000
2021-10-24 10:40:28.316489 , -0.0045152, 3.2361862, -35.7654253, -0.0327759, 0.0051270, 1.0045776, -4.6341463, 0.9146341, 25.6402439, -102.5000000, -131.2500000, -85.6250000
2021-10-24 10:40:28.522652 , 0.8297925, 3.8580163, -38.7997202, -0.0182495, 0.0054321, 0.9916992, -4.0548780, 3.0182927, 23.9939024, -96.1250000, -156.1250000, -61.6250000
2021-10-24 10:40:28.728196 , 0.7519234, 3.8192566, -42.7269926, 0.0057373, -0.0147095, 0.9897461, -6.3414634, 5.2439024, 21.8292683, -88.6250000, -178.3750000, -35.8750000
2021-10-24 10:40:28.934731 , 0.2006127, 3.2550612, -46.1393379, 0.0048218, -0.0314331, 0.9820557, -3.2621951, 4.3597561, 18.2317073, -98.3750000, -191.7500000, -12.5000000
2021-10-24 10:40:29.141143 , -0.2792827, 1.9496061, -45.4587685, -0.0139160, -0.0369263, 0.9996338, -2.7134146, 4.3597561, 15.2743902, -110.1250000, -197.1250000, 8197.7500000
2021-10-24 10:40:29.380125 , -1.0024140, 2.2137274, -46.9092117, -0.0563354, -0.0218506, 0.9970093, -5.8841463, 6.0670732, 18.9939024, -127.2500000, -191.2500000, 33.3750000
2021-10-24 10:40:29.605206 , -1.5283096, 2.1234650, -46.2517671, -0.0117188, -0.0484009, 1.0035400, -2.5914634, 6.0670732, 21.0060976, -153.6250000, -172.2500000, 52.3750000
2021-10-24 10:40:29.820047 , -1.8015357, 2.1859080, -44.4509337, -0.0104980, -0.0560303, 1.0059814, -2.7439024, 4.0243902, 18.0792683, -171.3750000, -151.3750000, 49.8750000
2021-10-24 10:40:30.045176 , -1.9484061, 2.4829128, -41.9155282, -0.0311890, -0.0510254, 1.0020752, -4.7560976, 2.4695122, 17.8353659, -179.5000000, -131.5000000, 36.8750000
2021-10-24 10:40:30.259898 , -2.3394399, 2.5321043, -39.3850156, -0.0316162, -0.0560303, 1.0194702, -7.3780488, 0.6707317, 19.0243902, -175.3750000, -119.1250000, 17.2500000
2021-10-24 10:40:30.485156 , -3.1569330, 2.0784515, -38.4235710, -0.0056763, -0.0865479, 1.0029297, -6.8292683, -0.8841463, 20.5182927, -165.0000000, -121.8750000, -32764.1250000
2021-10-24 10:40:30.700589 , -4.0183219, 1.5154890, -37.6620460, 0.0123901, -0.1121216, 0.9866333, -3.5975610, -0.2439024, 20.3963415, -151.1250000, -123.3750000, -10.8750000
2021-10-24 10:40:30.935939 , -4.7016573, 1.2479802, -38.0777020, 0.0025635, -0.1226807, 1.0546875, -3.4756098, 0.3353659, 13.5365854, -143.2500000, -130.3750000, -21.6250000
2021-10-24 10:40:31.140858 , -5.1864666, 0.4374781, -39.1159546, 0.0278931, -0.1210938, 1.0222778, -2.8048780, -6.6768293, 12.2256098, -136.2500000, -138.1250000, -26.8750000
2021-10-24 10:40:31.375105 , -5.3741354, 0.3217230, -40.7031417, 0.0161743, -0.1114502, 1.0260010, -1.0365854, 1.8292683, 2.5609756, -132.8750000, -140.6250000, -26.6250000
2021-10-24 10:40:31.600921 , -5.9542241, -0.0354084, -42.3322841, 0.0287476, -0.1358032, 1.0482178, -5.5182927, -2.4085366, 10.3658537, -125.0000000, -150.1250000, -30.6250000
2021-10-24 10:40:31.823646 , -6.4929459, -0.6388798, -44.0478801, 0.0625000, -0.1467285, 1.0258789, -3.4756098, 0.1219512, 5.6402439, -126.0000000, -156.1250000, -31.1250000
2021-10-24 10:40:32.025818 , -7.1814457, -1.3272875, -46.2076440, 0.0535889, -0.1763916, 0.9957275, -0.7317073, -6.0670732, -0.9451220, -117.1250000, -158.3750000, -32.8750000
2021-10-24 10:40:32.227730 , -7.8561435, -1.6712289, -47.8835784, 0.0831299, -0.1822510, 1.0482788, -3.5060976, 6.1280488, -5.5792683, -120.3750000, -154.1250000, -32.2500000
2021-10-24 10:40:32.432291 , -8.9023271, -1.9823681, -48.7796718, 0.0629883, -0.2246704, 1.0177612, -2.0426829, -1.0975610, 8.4146341, -118.7500000, -160.0000000, -34.0000000
2021-10-24 10:40:32.642190 , -9.0463507, -2.2166599, -50.2307712, 0.0522461, -0.1715698, 1.0242920, -1.4634146, -1.0060976, -6.5853659, -118.6250000, -159.7500000, -34.1250000
2021-10-24 10:40:32.848087 , -9.1280867, -2.2324958, -50.6622922, 0.0491333, -0.1817627, 1.0125732, 2.9268293, 1.1280488, 1.4939024, -121.7500000, -154.5000000, -36.2500000
2021-10-24 10:40:33.055216 , -9.5224626, -2.8487389, -51.4621883, 0.0843506, -0.1992798, 1.0057983, 0.5182927, -1.0060976, -6.8292683, -119.3750000, -154.7500000, -31.1250000
2021-10-24 10:40:33.261767 , -10.0282409, -3.8119375, -52.0532334, 0.1082764, -0.2021484, 1.0345459, -4.2378049, -4.7560976, -10.8536585, -122.7500000, -154.1250000, -29.8750000
2021-10-24 10:40:33.467981 , -10.2438053, -4.4700533, -52.1941640, 0.1011353, -0.2071533, 1.0363770, 0.6402439, -3.4146341, -14.2987805, -123.7500000, -143.7500000, -25.6250000
2021-10-24 10:40:33.674169 , -10.5128110, -4.8423042, -51.5977848, 0.0899048, -0.2083740, 1.0186768, -0.0304878, -1.7378049, -16.4939024, -133.1250000, -135.6250000, -22.8750000
2021-10-24 10:40:33.879859 , -10.1338753, -4.2252341, -49.7775712, 0.0505371, -0.1741943, 1.0219116, 4.7256098, 8.0182927, -12.7439024, -142.8750000, -117.6250000, -19.3750000
2021-10-24 10:40:34.085537 , -8.8780533, -2.9146873, -47.3297822, -0.0241089, -0.1159058, 1.0374756, 7.7743902, 5.5792683, -16.9512195, -156.7500000, -106.3750000, -7.5000000
2021-10-24 10:40:34.291682 , -5.1054262, -1.9063803, -47.6618762, -0.0167236, -0.1328735, 0.9712524, 6.5548780, 14.0243902, -7.0426829, -175.8750000, -95.0000000, 8196.1250000
2021-10-24 10:40:34.497670 , -5.5554214, -1.0760379, -41.0503443, 0.0455933, -0.1502075, 1.0437012, -6.0670732, 10.8231707, 23.1097561, -192.7500000, -73.2500000, 20.5000000
2021-10-24 10:40:34.703764 , -2.9950601, -0.0948517, -35.8884589, -0.0298462, -0.0491333, 1.0493774, 21.6768293, -0.5792683, -6.1585366, -208.7500000, -54.5000000, 37.6250000
2021-10-24 10:40:34.909778 , -0.5692599, 2.4083643, -30.8818644, -0.1616821, 0.0039062, 1.0592651, 14.6646341, 2.1646341, 19.1768293, -198.8750000, -56.6250000, 50.6250000
2021-10-24 10:40:35.115596 , 0.1217556, 0.5345333, -26.8884663, 0.0198975, 0.0657349, 1.0273438, -11.9817073, -26.9512195, 53.8414634, -181.7500000, -80.6250000, 42.0000000
2021-10-24 10:40:35.321962 , -0.6918569, -0.1041025, -26.3934510, 0.0761719, -0.0216675, 1.0198364, -9.8780488, 9.0548780, 21.5853659, -182.2500000, -102.6250000, 23.2500000
2021-10-24 10:40:35.527320 , 0.0103714, 1.6826284, -27.1754046, -0.0919189, 0.0187378, 0.9702759, 7.4390244, 12.5000000, 12.9878049, -191.6250000, -123.8750000, 5.1250000
2021-10-24 10:40:35.733446 , 0.4761724, 2.6363804, -28.2363848, -0.0717163, 0.0262451, 1.0216675, 0.3658537, 8.0182927, 31.4329268, -169.3750000, -138.3750000, -14.3750000
2021-10-24 10:40:35.939562 , -0.0377824, 1.4800061, -30.8558636, 0.0089111, -0.0134277, 1.0321655, -13.2012195, -14.2378049, 37.8353659, -142.7500000, -166.7500000, -22.8750000
2021-10-24 10:40:36.145556 , -1.6948511, 1.4657820, -34.7476663, -0.0012817, -0.0519409, 1.0049438, -26.3719512, 1.4939024, 14.4817073, -141.0000000, -183.5000000, -21.1250000
2021-10-24 10:40:36.351648 , -3.0281076, 2.7513074, -39.1897600, -0.0656128, -0.1009521, 0.9807129, -13.3231707, 10.2439024, 1.3719512, -133.0000000, -194.6250000, -31.1250000
2021-10-24 10:40:36.557668 , -5.7929768, 2.2464960, -42.6458227, -0.0651245, -0.1810303, 1.0181885, -28.6585366, -18.1707317, 15.0000000, -128.6250000, -210.2500000, -30.3750000
2021-10-24 10:40:36.763517 , -7.9343102, 1.1147920, -45.6127799, 0.0379639, -0.2474976, 0.9999390, -9.6036585, -7.1646341, 24.3902439, -117.5000000, -217.5000000, -30.6250000
2021-10-24 10:40:36.969562 , -9.0272684, 0.7819154, -48.8586266, 0.0130005, -0.2363281, 1.0446777, -0.3048780, 1.6463415, 3.6585366, -121.2500000, -218.8750000, -29.8750000
2021-10-24 10:40:37.175571 , -10.4265103, 1.2157995, -51.4138593, -0.0296021, -0.2553711, 1.0164185, -4.6036585, 6.0365854, 5.9146341, -120.3750000, -220.5000000, -29.1250000
2021-10-24 10:40:37.381664 , -11.4984124, 0.8850609, -53.7947214, 0.0144653, -0.2579956, 0.9840698, -1.4024390, 5.4268293, -5.2743902, -122.7500000, -218.2500000, -29.0000000
2021-10-24 10:40:37.589188 , -12.0249044, 0.4550898, -55.9890575, -0.0217896, -0.2568359, 0.9789429, 4.7865854, -5.1829268, -19.0243902, -124.8750000, -213.6250000, -28.3750000
2021-10-24 10:40:37.795311 , -12.5646149, -0.7624355, -57.3583550, 0.0490112, -0.2551270, 1.0580444, -3.7500000, -8.0182927, -12.8963415, -123.5000000, -211.0000000, -28.3750000
2021-10-24 10:40:38.001256 , -13.8599588, -1.2351945, -59.3718208, 0.0452271, -0.3222046, 1.0126343, -4.6646341, 7.9878049, -47.0121951, -136.8750000, -203.8750000, -21.6250000
2021-10-24 10:40:38.207913 , -13.1067578, -0.1019487, -63.0600843, 0.0749512, -0.3135986, 1.0023193, 21.8292683, 16.9817073, -64.7560976, -160.3750000, -181.0000000, -24579.5000000
2021-10-24 10:40:38.413867 , -10.4042868, 1.8661916, -60.4650843, -0.0202637, -0.2205811, 1.0438232, 33.5975610, 24.1463415, -39.1158537, -176.5000000, -153.3750000, 29.2500000
2021-10-24 10:40:38.619841 , -8.1732584, 4.8254335, -57.3586537, -0.0612183, -0.1567993, 0.9772949, 15.2439024, 32.4085366, -30.5182927, -187.6250000, -138.2500000, 53.2500000
2021-10-24 10:40:38.825967 , -6.1411936, 5.5847726, -54.0628487, -0.0397949, -0.1262817, 0.9851074, 7.1036585, -2.5000000, -18.9329268, -192.5000000, -129.3750000, 83.5000000
2021-10-24 10:40:39.032444 , -3.8697651, 6.0890079, -51.7502928, -0.0625610, -0.0674438, 1.0493774, 10.0304878, -4.8780488, -17.3780488, -185.6250000, -131.6250000, 101.3750000
2021-10-24 10:40:39.238094 , -3.2246606, 4.9780119, -50.2923613, 0.0418091, -0.1116943, 1.0115967, 6.3414634, -3.9939024, -10.2439024, -179.2500000, -139.8750000, 117.8750000
2021-10-24 10:40:39.444406 , -2.6175735, 4.8110295, -49.7565477, -0.0402222, -0.0619507, 1.0227661, 4.0853659, -1.7378049, -9.5426829, -167.1250000, -152.7500000, 139.8750000
2021-10-24 10:40:39.650580 , -2.0163129, 2.5944845, -49.0886203, 0.0423584, -0.0277100, 1.0299072, 2.9268293, -19.2073171, 3.2012195, -154.1250000, -155.6250000, 131.3750000
2021-10-24 10:40:39.856849 , -2.4397949, 1.4281849, -48.9958327, 0.0752563, -0.0555420, 0.9545898, -2.1951220, 8.5365854, 4.3597561, -140.3750000, -162.6250000, 138.3750000
2021-10-24 10:40:40.062839 , -2.0859011, 1.1262516, -48.9581325, 0.0525513, -0.0429077, 1.0311890, 6.6158537, 12.7439024, 0.2134146, -143.7500000, -165.0000000, 130.3750000
2021-10-24 10:40:40.268688 , -1.8462234, 1.4215953, -49.4686582, -0.0581055, -0.0042114, 1.0130615, 0.9756098, 1.6463415, 1.2195122, -136.3750000, -178.6250000, 117.8750000
2021-10-24 10:40:40.474349 , -2.8270554, 0.4012566, -50.7889227, -0.0036621, -0.0420532, 1.0117798, -8.9634146, -3.5060976, -2.4695122, -117.3750000, -179.7500000, 118.7500000
2021-10-24 10:40:40.679808 , -3.1269027, 0.2705844, -51.6121809, -0.0335083, -0.0537109, 1.0116577, 0.7926829, -1.3109756, 0.3353659, -119.3750000, -181.2500000, 113.6250000
2021-10-24 10:40:40.885610 , -3.4536495, 0.1538842, -52.2687491, -0.0271606, -0.0526123, 1.0115356, -2.3475610, -1.1890244, 0.4878049, -117.2500000, -179.0000000, 116.7500000
2021-10-24 10:40:41.091715 , -3.6466189, 0.4441508, -52.6463244, -0.0439453, -0.0498657, 0.9960938, -2.5304878, 0.8841463, 1.3719512, -114.8750000, -175.2500000, 143.1250000
2021-10-24 10:40:41.297941 , -3.8603794, 0.7624785, -52.2894572, -0.0258789, -0.0758667, 1.0208740, -3.4756098, -0.3658537, 4.3292683, -129.2500000, -171.3750000, 169.7500000
2021-10-24 10:40:41.503858 , -3.6850838, 1.7720889, -51.1526581, -0.0365601, -0.0811157, 1.0302124, -6.5243902, 0.7012195, 5.0609756, -158.3750000, -163.3750000, 208.3750000
2021-10-24 10:40:41.709814 , -3.1249828, 3.1304546, -49.2193389, -0.0258179, -0.1015015, 1.0400391, -4.6951220, 6.2804878, 6.2804878, -191.5000000, -148.8750000, 209.0000000
2021-10-24 10:40:41.916057 , -2.6453741, 4.1633360, -46.9111574, -0.0274048, -0.1213379, 1.0086670, -2.2560976, 3.8109756, 5.8841463, -215.7500000, -140.5000000, 195.2500000
2021-10-24 10:40:42.133213 , -2.3732113, 5.4016645, -44.8887756, -0.0703735, -0.1177368, 0.9940186, -1.5853659, 5.4878049, 3.7195122, -221.6250000, -139.3750000, 184.1250000
2021-10-24 10:40:42.348803 , -2.4636574, 5.6982791, -42.9871094, -0.0465088, -0.1354370, 1.0352783, -0.6402439, 1.8902439, 5.9146341, -218.5000000, -135.8750000, 162.3750000
2021-10-24 10:40:42.554443 , -2.8861445, 5.4404419, -41.4161393, -0.0322876, -0.1394043, 1.0093994, -1.3109756, -1.0365854, 5.8536585, -211.2500000, -135.0000000, 148.2500000
2021-10-24 10:40:42.775200 , -2.9492983, 5.7004561, -40.0510366, -0.0629272, -0.1195068, 1.0502319, 0.1219512, 3.4451220, 2.8658537, -209.8750000, -133.1250000, 136.3750000
2021-10-24 10:40:42.990113 , -3.5600461, 5.9115940, -38.7852788, -0.0824585, -0.1232910, 1.0122681, -5.9756098, 0.9756098, 7.8353659, -205.0000000, -134.5000000, 126.8750000
2021-10-24 10:40:43.205609 , -4.4189936, 5.5798287, -37.8380180, -0.0632324, -0.1355591, 0.9850464, -6.8292683, -2.7439024, 7.1646341, -201.5000000, -135.6250000, 126.6250000
2021-10-24 10:40:43.410720 , -4.7937814, 5.7641129, -36.8962407, -0.0932007, -0.1433716, 1.0101929, -0.0609756, -0.8231707, 5.8231707, -201.3750000, -132.1250000, 124.0000000
2021-10-24 10:40:43.635725 , -5.6269936, 4.9651875, -36.6809581, -0.0467529, -0.1619263, 1.0261841, -1.7987805, -4.7256098, -0.7926829, -194.0000000, -135.7500000, 115.1250000
2021-10-24 10:40:43.851266 , -4.9454704, 4.7180353, -35.7561503, -0.0300903, -0.1391602, 1.0332031, 14.5426829, 3.6280488, 3.1707317, -197.5000000, -125.6250000, 110.1250000
2021-10-24 10:40:44.075105 , -5.6351097, 4.7655441, -35.0594589, -0.0567627, -0.1425781, 1.0032349, -7.2256098, 3.0487805, 1.2500000, -201.2500000, -126.7500000, 105.3750000
2021-10-24 10:40:44.290095 , -6.2243996, 5.0474835, -34.2743490, -0.0887451, -0.1561279, 1.0281982, -3.4756098, 1.8292683, 8.5670732, -200.2500000, -131.5000000, 93.7500000
2021-10-24 10:40:44.506620 , -6.7447424, 5.3824646, -33.7030723, -0.0916138, -0.1606445, 0.9884644, -0.7926829, 3.5060976, 6.4329268, -201.0000000, -131.3750000, 85.6250000
2021-10-24 10:40:44.708723 , -7.0615713, 5.5425205, -33.2460035, -0.0896606, -0.1620483, 1.0033569, 1.9207317, 2.9268293, 5.8536585, -204.0000000, -133.1250000, 74.1250000
2021-10-24 10:40:44.910794 , -7.3207393, 5.4342824, -32.6799215, -0.0999756, -0.1586914, 1.0184326, 0.6402439, -4.1158537, 8.7195122, -201.7500000, -131.3750000, 64.0000000
2021-10-24 10:40:45.112742 , -7.6458583, 5.0814191, -32.5364110, -0.0654297, -0.1600342, 1.0077515, 1.7073171, 0.5487805, 8.5365854, -195.0000000, -133.8750000, 56.2500000
2021-10-24 10:40:45.316997 , -7.9977773, 5.1470556, -32.4517156, -0.0887451, -0.1453857, 1.0212402, -4.2987805, 2.1341463, 7.8353659, -198.2500000, -136.2500000, 47.1250000
2021-10-24 10:40:45.523269 , -8.5309840, 5.2441344, -32.3698218, -0.0954590, -0.1607056, 1.0117798, -5.1829268, 1.1280488, 11.4939024, -198.6250000, -139.3750000, 34.6250000
2021-10-24 10:40:45.729767 , -8.7657499, 5.3300005, -32.5327333, -0.0883179, -0.1632690, 1.0176392, -0.4268293, 3.6280488, 10.6402439, -198.6250000, -142.6250000, 21.2500000
2021-10-24 10:40:45.935526 , -9.0661849, 5.2572721, -33.2874223, -0.0905762, -0.1567993, 1.0126953, -2.9268293, 1.2500000, 8.1707317, -197.2500000, -153.6250000, 8.3750000
2021-10-24 10:40:46.141341 , -6.2859959, 3.0609369, -32.7553899, -0.1223755, -0.1657715, 0.9877930, -2.8353659, 3.9634146, 4.2987805, -194.2500000, -155.6250000, 24577.5000000
2021-10-24 10:40:46.347446 , -6.3593565, 4.7665304, -32.4958218, -0.1269531, -0.1660156, 1.0155029, -1.0060976, 3.5975610, 8.6890244, -183.8750000, -166.1250000, -8195.7500000
2021-10-24 10:40:46.553739 , -7.3022457, 5.0635491, -34.3592411, -0.1173706, -0.1829834, 1.0364380, 0.0000000, 0.7621951, 10.0609756, -181.3750000, -167.8750000, -9.1250000
2021-10-24 10:40:46.758949 , -7.7721614, 6.3659677, -34.3648351, -0.1433105, -0.1871948, 0.9908447, -6.2500000, 1.8597561, 3.5975610, -168.6250000, -175.5000000, -8201.6250000
2021-10-24 10:40:46.965063 , -8.6557844, 5.6432303, -37.0090501, -0.1222534, -0.1774902, 0.9928589, -3.7804878, -14.0853659, 10.2439024, -161.0000000, -183.1250000, -16.0000000
2021-10-24 10:40:47.171032 , -9.3778792, 6.5300252, -40.4939219, -0.0966797, -0.2391968, 1.0603638, 9.0548780, 26.2804878, -10.8231707, -158.7500000, -181.7500000, -22.1250000
2021-10-24 10:40:47.377047 , -9.4993736, 6.3933568, -42.5217736, -0.1531982, -0.1478882, 0.9669800, -2.6524390, -10.5487805, 3.2317073, -155.7500000, -189.0000000, -22.5000000
2021-10-24 10:40:47.583272 , -10.3599472, 6.4249866, -43.9708610, -0.1227417, -0.1899414, 1.0114136, -10.8841463, 0.0000000, 17.2865854, -149.2500000, -193.8750000, -20.6250000
2021-10-24 10:40:47.789145 , -10.9514335, 6.6850695, -45.6116904, -0.1411743, -0.2070923, 1.0103760, -4.6341463, 0.7926829, 14.6951220, -145.2500000, -200.3750000, -24.2500000
2021-10-24 10:40:47.994916 , -11.2732799, 6.4968836, -47.4383547, -0.1174316, -0.2003784, 0.9909668, -1.6768293, -0.4878049, 6.9512195, -141.2500000, -201.3750000, -23.2500000
2021-10-24 10:40:48.200749 , -11.2069043, 6.3082421, -49.2139737, -0.1276245, -0.1887817, 1.0088501, 0.5182927, -3.8719512, 4.5426829, -134.2500000, -200.8750000, -28.2500000
2021-10-24 10:40:48.406118 , -11.7202935, 5.9286540, -50.3954311, -0.0917969, -0.1835938, 1.0256348, -14.1463415, -0.8841463, 10.5182927, -136.8750000, -207.1250000, -27.0000000
2021-10-24 10:40:48.612265 , -12.0534985, 6.5568400, -51.4375630, -0.1353149, -0.2149048, 1.0287476, -4.9085366, 7.8963415, 12.6524390, -138.6250000, -214.0000000, -23.2500000
2021-10-24 10:40:48.817621 , -12.6798816, 6.5949190, -52.6970631, -0.1106567, -0.2390137, 1.0146484, -6.0060976, 4.7256098, 8.1707317, -136.7500000, -218.8750000, -30.3750000
2021-10-24 10:40:49.023664 , -13.0757495, 6.5953692, -53.9510466, -0.1282959, -0.2484741, 1.0112915, -0.8841463, 1.2804878, 0.3353659, -136.7500000, -216.3750000, -24.3750000
2021-10-24 10:40:49.229895 , -13.2580441, 6.8067432, -54.9332540, -0.1537476, -0.2403564, 1.0054321, -0.3353659, -1.3109756, -1.9512195, -138.0000000, -215.6250000, -27.0000000
2021-10-24 10:40:49.436345 , -13.4615399, 6.8061829, -55.6729017, -0.1342163, -0.2452393, 0.9985962, -0.3963415, -0.7621951, 0.2134146, -137.3750000, -217.0000000, -23.6250000
2021-10-24 10:40:49.642295 , -13.6748581, 6.5380134, -56.4145744, -0.1231079, -0.2512207, 1.0098267, -0.6707317, -2.7439024, -4.5121951, -137.3750000, -215.3750000, -24.5000000
2021-10-24 10:40:49.847772 , -13.6904778, 6.0539877, -57.5733259, -0.1114502, -0.2559204, 1.0184937, 3.9939024, -3.0487805, -14.6951220, -135.7500000, -217.0000000, -23.7500000
2021-10-24 10:40:50.054289 , -13.7373724, 6.2182526, -58.3634376, -0.1373901, -0.2460938, 0.9970093, 1.6158537, 0.5792683, -19.2682927, -139.6250000, -209.3750000, -26.0000000
2021-10-24 10:40:50.260208 , -13.6912358, 6.1290456, -58.1522238, -0.1081543, -0.2533569, 1.0022583, 2.8048780, -0.3353659, -9.1158537, -145.3750000, -205.0000000, -26.0000000
2021-10-24 10:40:50.466070 , -13.5932536, 5.8970189, -57.9501973, -0.1076660, -0.2477417, 1.0135498, 1.9207317, -3.3231707, -11.1585366, -145.3750000, -202.3750000, -19.7500000
2021-10-24 10:40:50.671915 , -13.4985052, 5.4560555, -57.6031654, -0.0892944, -0.2409668, 1.0020752, 1.4024390, -4.1768293, -12.5000000, -147.7500000, -197.1250000, -28.1250000
2021-10-24 10:40:50.877243 , -13.4520202, 5.1366486, -57.2531476, -0.0855713, -0.2437744, 1.0179443, 0.4878049, -2.2865854, -13.4146341, -150.3750000, -196.3750000, -26.6250000
2021-10-24 10:40:51.083564 , -13.0906097, 4.9193271, -56.4870819, -0.0880737, -0.2360229, 1.0225830, 4.1463415, -3.4451220, -12.6219512, -156.7500000, -191.0000000, -21.8750000
2021-10-24 10:40:51.289648 , -12.7683966, 5.0572644, -55.4796729, -0.0988159, -0.2242432, 1.0058594, 2.4695122, -1.5548780, -5.4573171, -159.3750000, -191.7500000, -20.0000000
2021-10-24 10:40:51.495874 , -12.4153236, 4.4580730, -54.3355896, -0.0416870, -0.2248535, 1.0260620, 3.3231707, -2.3780488, -4.6341463, -163.2500000, -186.7500000, -16.7500000
2021-10-24 10:40:51.701837 , -12.0696688, 3.9921733, -53.2921354, -0.0482788, -0.2177124, 1.0266113, 2.8658537, -3.4146341, -8.5975610, -169.7500000, -185.2500000, -12.0000000
2021-10-24 10:40:51.907226 , -11.2143060, 3.8783473, -53.8125384, -0.0413208, -0.2053223, 1.0224609, 6.8597561, -7.5609756, -9.0548780, -173.1250000, -175.8750000, -8198.3750000
2021-10-24 10:40:52.113793 , -6.8837484, 0.9930482, -53.6899125, -0.0185547, -0.1832886, 1.0167236, -0.1829268, -3.2317073, -3.2317073, -182.5000000, -173.1250000, 16386.8750000
2021-10-24 10:40:52.319794 , -7.5124174, 1.3180720, -51.4839170, -0.0354004, -0.1989136, 1.0056763, 0.4268293, -2.5000000, -12.5914634, -195.6250000, -168.1250000, 13.2500000
2021-10-24 10:40:52.526240 , -7.6839257, 1.5533508, -49.1693257, -0.0244141, -0.1863403, 1.0286865, 1.6463415, -1.9817073, -3.8719512, -192.1250000, -161.2500000, 22.6250000
2021-10-24 10:40:52.733506 , -7.6199348, 1.5498315, -46.9540902, 0.0001221, -0.1800537, 1.0241089, 2.3475610, -1.4329268, -3.3841463, -199.3750000, -157.5000000, 38.3750000
2021-10-24 10:40:52.939092 , -7.7844222, 1.4165660, -44.9823118, 0.0160522, -0.1959839, 1.0213623, 0.7012195, -0.7012195, -3.6280488, -199.0000000, -151.1250000, 51.5000000
2021-10-24 10:40:53.145134 , -7.5179918, 1.5702237, -43.4750320, -0.0002441, -0.1795044, 1.0227661, 3.5365854, 0.7012195, -8.6585366, -197.2500000, -145.6250000, 68.2500000
2021-10-24 10:40:53.351819 , -7.0935325, 1.6229385, -41.8541837, 0.0133057, -0.1709595, 1.0217285, 3.9939024, 1.2500000, -5.4268293, -200.6250000, -140.2500000, 83.2500000
2021-10-24 10:40:53.557234 , -6.2861717, 2.2110569, -40.6191413, -0.0194702, -0.1516724, 1.0114746, 8.4451220, 4.9695122, -12.1646341, -201.1250000, -132.7500000, 92.6250000
2021-10-24 10:40:53.763440 , -5.0877569, 3.2068509, -39.1020500, -0.0403442, -0.1252441, 1.0226440, 9.6036585, 8.5670732, -7.8658537, -209.8750000, -126.0000000, 112.1250000
2021-10-24 10:40:53.969913 , -4.1439576, 3.6258076, -37.8981233, -0.0661011, -0.0855713, 0.9924927, 2.3780488, -4.8170732, -6.4329268, -200.8750000, -120.2500000, 128.1250000
2021-10-24 10:40:54.176472 , -3.5640396, 3.1922914, -36.4757119, -0.0296631, -0.0706177, 1.0074463, -1.1890244, -9.2682927, 9.2682927, -188.3750000, -118.3750000, 142.1250000
2021-10-24 10:40:54.382268 , -3.2018700, 2.6186752, -35.6373321, -0.0079346, -0.0930786, 1.0121460, 6.8597561, -5.3963415, 5.6097561, -176.2500000, -114.3750000, 150.5000000
2021-10-24 10:40:54.587599 , -2.8269264, 2.1646973, -35.3924427, -0.0072021, -0.0689087, 1.0144653, 3.6280488, -4.1463415, -5.4573171, -171.2500000, -109.6250000, 157.0000000
2021-10-24 10:40:54.794780 , -3.4670152, -0.0081020, -35.1775780, 0.0680542, -0.0731812, 0.9995117, -8.1097561, -18.6890244, 2.6219512, -164.5000000, -118.6250000, 170.2500000
2021-10-24 10:40:55.010671 , -3.9837174, -0.7294954, -34.8384648, 0.0711060, -0.1090698, 1.0266724, -5.6097561, -1.5243902, -1.5853659, -181.3750000, -123.6250000, 190.5000000
2021-10-24 10:40:55.235164 , -3.5859453, -1.0085057, -34.2117073, 0.0532227, -0.0897827, 1.0252686, 2.3475610, -2.3780488, 0.2743902, -197.8750000, -128.2500000, 220.0000000
2021-10-24 10:40:55.450039 , -3.1751342, -1.4525355, -33.6594943, 0.0662842, -0.0782471, 1.0025635, 1.7987805, -3.2926829, -0.5182927, -217.8750000, -138.1250000, 262.1250000
2021-10-24 10:40:55.665870 , -3.3143577, -1.9433706, -33.3872982, 0.0718994, -0.0856934, 1.0208740, -3.2926829, -3.2317073, -2.5000000, -230.5000000, -152.8750000, 307.1250000
2021-10-24 10:40:55.890038 , -3.4013663, -2.7554660, -33.2489656, 0.1008301, -0.0986328, 1.0182495, 2.3170732, -3.6585366, -2.9878049, -236.6250000, -166.1250000, 352.8750000
2021-10-24 10:40:56.104660 , -3.7207886, -3.2962784, -33.3346571, 0.0974731, -0.0839844, 1.0175171, -2.1951220, 0.2743902, -3.2012195, -246.7500000, -195.2500000, 415.8750000
2021-10-24 10:40:56.329184 , -4.3698868, -4.3527065, -33.4104727, 0.1304932, -0.1046143, 1.0493774, -1.4634146, -2.8658537, 0.1829268, -243.1250000, -221.3750000, 471.1250000
2021-10-24 10:40:56.545217 , -4.8320384, -4.9786419, -33.7300661, 0.1111450, -0.0922241, 1.0115967, 0.4268293, 0.2743902, -2.3475610, -223.2500000, -240.0000000, 515.8750000
2021-10-24 10:40:56.770056 , -5.0895020, -5.1749067, -33.9290202, 0.1018066, -0.0966797, 1.0180054, 1.4939024, 2.2256098, -1.2500000, -219.0000000, -239.6250000, 523.1250000
2021-10-24 10:40:56.984799 , -5.2670426, -5.1330094, -33.9700234, 0.0914307, -0.0919189, 1.0083008, -1.6463415, 1.7987805, 0.3048780, -230.0000000, -240.0000000, 519.7500000
2021-10-24 10:40:57.209332 , -5.1056763, -5.0772235, -34.0057160, 0.0955200, -0.0930786, 1.0100708, 1.3109756, 1.2500000, -2.0121951, -251.5000000, -240.5000000, 508.1250000
2021-10-24 10:40:57.414032 , -4.7136946, -4.2022648, -33.6994478, 0.0761108, -0.0965576, 1.0043945, -0.4573171, 8.8414634, -1.9817073, -293.3750000, -225.6250000, 463.7500000
2021-10-24 10:40:57.620099 , -3.9179309, -3.6198891, -32.8998890, 0.0794678, -0.0932007, 1.0444946, 0.7012195, 3.0182927, -0.7926829, -280.8750000, -173.2500000, 368.1250000
